Folder: lucian/Experiments/Lab Data/8.8.22/DPV/csv/Bare Electrode (part 2)

File: Bare Fe3+_SPGE8.bin.csv
June 8, 2022   13:30:10
Differential Pulse Voltammetry
File: e:\bare electrode\bare fe3+_spge8.bin.csv
Data Source:  Experiment
Instrument Model:  CHI650E
Data Proc:  Smoothing
Header:
Note:

Init E (V) = -0.15
Final E (V) = 0.35
Incr E (V) = 0.004
Amplitude (V) = 0.05
Pulse Width (sec) = 0.05
Sample Width (sec) = 0.0167
Pulse Period (sec) = 0.5
Quiet Time (sec) = 10
Sensitivity (A/V) = 0.001

Ep = 0.082V
ip = -3.049e-6A
Ap = -4.979e-7VA

Potential/V, Current/A

-0.146, -2.030e-6
-0.142, -1.988e-6
-0.138, -1.951e-6
-0.134, -1.918e-6
-0.130, -1.893e-6
-0.126, -1.866e-6
-0.122, -1.839e-6
-0.118, -1.812e-6
-0.114, -1.792e-6
-0.110, -1.763e-6
-0.106, -1.741e-6
-0.102, -1.714e-6
-0.098, -1.689e-6
-0.094, -1.673e-6
-0.090, -1.660e-6
-0.086, -1.643e-6
-0.082, -1.639e-6
-0.078, -1.637e-6
-0.074, -1.636e-6
-0.070, -1.638e-6
-0.066, -1.643e-6
-0.062, -1.653e-6
-0.058, -1.674e-6
-0.054, -1.696e-6
-0.050, -1.723e-6
-0.046, -1.756e-6
-0.042, -1.801e-6
-0.038, -1.850e-6
-0.034, -1.907e-6
-0.030, -1.970e-6
-0.026, -2.038e-6
-0.022, -2.113e-6
-0.018, -2.195e-6
-0.014, -2.280e-6
-0.010, -2.374e-6
-0.006, -2.481e-6
-0.002, -2.594e-6
0.002, -2.714e-6
0.006, -2.831e-6
0.010, -2.955e-6
0.014, -3.077e-6
0.018, -3.208e-6
0.022, -3.334e-6
0.026, -3.450e-6
0.030, -3.553e-6
0.034, -3.652e-6
0.038, -3.748e-6
0.042, -3.843e-6
0.046, -3.936e-6
0.050, -4.022e-6
0.054, -4.093e-6
0.058, -4.156e-6
0.062, -4.211e-6
0.066, -4.255e-6
0.070, -4.292e-6
0.074, -4.320e-6
0.078, -4.331e-6
0.082, -4.342e-6
0.086, -4.334e-6
0.090, -4.321e-6
0.094, -4.294e-6
0.098, -4.258e-6
0.102, -4.210e-6
0.106, -4.157e-6
0.110, -4.088e-6
0.114, -4.025e-6
0.118, -3.949e-6
0.122, -3.869e-6
0.126, -3.777e-6
0.130, -3.683e-6
0.134, -3.577e-6
0.138, -3.477e-6
0.142, -3.361e-6
0.146, -3.250e-6
0.150, -3.133e-6
0.154, -3.029e-6
0.158, -2.922e-6
0.162, -2.815e-6
0.166, -2.703e-6
0.170, -2.596e-6
0.174, -2.484e-6
0.178, -2.382e-6
0.182, -2.273e-6
0.186, -2.163e-6
0.190, -2.059e-6
0.194, -1.964e-6
0.198, -1.871e-6
0.202, -1.789e-6
0.206, -1.699e-6
0.210, -1.621e-6
0.214, -1.536e-6
0.218, -1.469e-6
0.222, -1.406e-6
0.226, -1.354e-6
0.230, -1.298e-6
0.234, -1.256e-6
0.238, -1.203e-6
0.242, -1.166e-6
0.246, -1.132e-6
0.250, -1.100e-6
0.254, -1.069e-6
0.258, -1.043e-6
0.262, -1.014e-6
0.266, -9.905e-7
0.270, -9.703e-7
0.274, -9.472e-7
0.278, -9.295e-7
0.282, -9.088e-7
0.286, -8.896e-7
0.290, -8.712e-7
0.294, -8.528e-7
0.298, -8.354e-7
0.302, -8.238e-7
0.306, -8.129e-7
0.310, -8.030e-7
0.314, -7.907e-7
0.318, -7.748e-7
0.322, -7.648e-7
0.326, -7.557e-7
0.330, -7.484e-7
0.334, -7.419e-7
0.338, -7.347e-7
0.342, -7.271e-7
0.346, -7.189e-7
0.350, -7.100e-7

File: Bare Fe3+_SPGE9.bin.csv
June 8, 2022   13:51:46
Differential Pulse Voltammetry
File: e:\bare electrode\bare fe3+_spge9.bin.csv
Data Source:  Experiment
Instrument Model:  CHI650E
Data Proc:  Smoothing
Header:
Note:

Init E (V) = -0.15
Final E (V) = 0.35
Incr E (V) = 0.004
Amplitude (V) = 0.05
Pulse Width (sec) = 0.05
Sample Width (sec) = 0.0167
Pulse Period (sec) = 0.5
Quiet Time (sec) = 10
Sensitivity (A/V) = 0.001

Ep = 0.074V
ip = -5.906e-6A
Ap = -9.999e-7VA

Potential/V, Current/A

-0.146, -2.963e-6
-0.142, -2.910e-6
-0.138, -2.866e-6
-0.134, -2.831e-6
-0.130, -2.807e-6
-0.126, -2.791e-6
-0.122, -2.783e-6
-0.118, -2.776e-6
-0.114, -2.766e-6
-0.110, -2.760e-6
-0.106, -2.745e-6
-0.102, -2.734e-6
-0.098, -2.734e-6
-0.094, -2.748e-6
-0.090, -2.762e-6
-0.086, -2.787e-6
-0.082, -2.808e-6
-0.078, -2.835e-6
-0.074, -2.863e-6
-0.070, -2.893e-6
-0.066, -2.929e-6
-0.062, -2.973e-6
-0.058, -3.023e-6
-0.054, -3.096e-6
-0.050, -3.177e-6
-0.046, -3.271e-6
-0.042, -3.380e-6
-0.038, -3.491e-6
-0.034, -3.608e-6
-0.030, -3.733e-6
-0.026, -3.876e-6
-0.022, -4.037e-6
-0.018, -4.194e-6
-0.014, -4.356e-6
-0.010, -4.521e-6
-0.006, -4.694e-6
-0.002, -4.890e-6
0.002, -5.100e-6
0.006, -5.305e-6
0.010, -5.524e-6
0.014, -5.744e-6
0.018, -5.969e-6
0.022, -6.186e-6
0.026, -6.399e-6
0.030, -6.595e-6
0.034, -6.779e-6
0.038, -6.944e-6
0.042, -7.097e-6
0.046, -7.232e-6
0.050, -7.362e-6
0.054, -7.480e-6
0.058, -7.584e-6
0.062, -7.671e-6
0.066, -7.747e-6
0.070, -7.796e-6
0.074, -7.824e-6
0.078, -7.819e-6
0.082, -7.794e-6
0.086, -7.749e-6
0.090, -7.685e-6
0.094, -7.606e-6
0.098, -7.514e-6
0.102, -7.401e-6
0.106, -7.281e-6
0.110, -7.144e-6
0.114, -6.989e-6
0.118, -6.822e-6
0.122, -6.648e-6
0.126, -6.469e-6
0.130, -6.289e-6
0.134, -6.102e-6
0.138, -5.911e-6
0.142, -5.706e-6
0.146, -5.495e-6
0.150, -5.285e-6
0.154, -5.083e-6
0.158, -4.886e-6
0.162, -4.689e-6
0.166, -4.484e-6
0.170, -4.275e-6
0.174, -4.073e-6
0.178, -3.876e-6
0.182, -3.680e-6
0.186, -3.487e-6
0.190, -3.295e-6
0.194, -3.107e-6
0.198, -2.931e-6
0.202, -2.763e-6
0.206, -2.604e-6
0.210, -2.453e-6
0.214, -2.308e-6
0.218, -2.167e-6
0.222, -2.040e-6
0.226, -1.920e-6
0.230, -1.809e-6
0.234, -1.706e-6
0.238, -1.605e-6
0.242, -1.511e-6
0.246, -1.429e-6
0.250, -1.350e-6
0.254, -1.279e-6
0.258, -1.218e-6
0.262, -1.156e-6
0.266, -1.107e-6
0.270, -1.052e-6
0.274, -1.008e-6
0.278, -9.655e-7
0.282, -9.347e-7
0.286, -8.994e-7
0.290, -8.732e-7
0.294, -8.459e-7
0.298, -8.294e-7
0.302, -8.108e-7
0.306, -7.994e-7
0.310, -7.835e-7
0.314, -7.704e-7
0.318, -7.623e-7
0.322, -7.549e-7
0.326, -7.483e-7
0.330, -7.469e-7
0.334, -7.349e-7
0.338, -7.315e-7
0.342, -7.300e-7
0.346, -7.306e-7
0.350, -7.335e-7

File: Bare Fe3+_SPGE10.bin.csv
June 8, 2022   13:34:50
Differential Pulse Voltammetry
File: e:\bare electrode\bare fe3+_spge10.bin.csv
Data Source:  Experiment
Instrument Model:  CHI650E
Data Proc:  Smoothing
Header:
Note:

Init E (V) = -0.15
Final E (V) = 0.35
Incr E (V) = 0.004
Amplitude (V) = 0.05
Pulse Width (sec) = 0.05
Sample Width (sec) = 0.0167
Pulse Period (sec) = 0.5
Quiet Time (sec) = 10
Sensitivity (A/V) = 0.001

Ep = 0.074V
ip = -8.285e-6A
Ap = -1.323e-6VA

Potential/V, Current/A

-0.146, -2.852e-6
-0.142, -2.810e-6
-0.138, -2.776e-6
-0.134, -2.750e-6
-0.130, -2.730e-6
-0.126, -2.723e-6
-0.122, -2.724e-6
-0.118, -2.728e-6
-0.114, -2.732e-6
-0.110, -2.733e-6
-0.106, -2.727e-6
-0.102, -2.735e-6
-0.098, -2.744e-6
-0.094, -2.762e-6
-0.090, -2.794e-6
-0.086, -2.832e-6
-0.082, -2.870e-6
-0.078, -2.916e-6
-0.074, -2.971e-6
-0.070, -3.029e-6
-0.066, -3.098e-6
-0.062, -3.167e-6
-0.058, -3.238e-6
-0.054, -3.325e-6
-0.050, -3.432e-6
-0.046, -3.555e-6
-0.042, -3.690e-6
-0.038, -3.838e-6
-0.034, -3.992e-6
-0.030, -4.166e-6
-0.026, -4.362e-6
-0.022, -4.566e-6
-0.018, -4.783e-6
-0.014, -5.018e-6
-0.010, -5.271e-6
-0.006, -5.538e-6
-0.002, -5.824e-6
0.002, -6.112e-6
0.006, -6.403e-6
0.010, -6.712e-6
0.014, -7.034e-6
0.018, -7.359e-6
0.022, -7.692e-6
0.026, -8.010e-6
0.030, -8.315e-6
0.034, -8.608e-6
0.038, -8.879e-6
0.042, -9.133e-6
0.046, -9.371e-6
0.050, -9.574e-6
0.054, -9.746e-6
0.058, -9.894e-6
0.062, -1.001e-5
0.066, -1.009e-5
0.070, -1.013e-5
0.074, -1.014e-5
0.078, -1.012e-5
0.082, -1.007e-5
0.086, -9.977e-6
0.090, -9.857e-6
0.094, -9.703e-6
0.098, -9.525e-6
0.102, -9.321e-6
0.106, -9.090e-6
0.110, -8.838e-6
0.114, -8.566e-6
0.118, -8.283e-6
0.122, -7.989e-6
0.126, -7.685e-6
0.130, -7.374e-6
0.134, -7.054e-6
0.138, -6.737e-6
0.142, -6.430e-6
0.146, -6.128e-6
0.150, -5.832e-6
0.154, -5.548e-6
0.158, -5.270e-6
0.162, -5.008e-6
0.166, -4.757e-6
0.170, -4.514e-6
0.174, -4.273e-6
0.178, -4.041e-6
0.182, -3.810e-6
0.186, -3.591e-6
0.190, -3.381e-6
0.194, -3.184e-6
0.198, -2.999e-6
0.202, -2.823e-6
0.206, -2.655e-6
0.210, -2.497e-6
0.214, -2.344e-6
0.218, -2.203e-6
0.222, -2.071e-6
0.226, -1.943e-6
0.230, -1.832e-6
0.234, -1.720e-6
0.238, -1.620e-6
0.242, -1.529e-6
0.246, -1.444e-6
0.250, -1.359e-6
0.254, -1.288e-6
0.258, -1.216e-6
0.262, -1.159e-6
0.266, -1.106e-6
0.270, -1.058e-6
0.274, -1.010e-6
0.278, -9.705e-7
0.282, -9.301e-7
0.286, -9.011e-7
0.290, -8.721e-7
0.294, -8.502e-7
0.298, -8.298e-7
0.302, -8.119e-7
0.306, -7.855e-7
0.310, -7.630e-7
0.314, -7.416e-7
0.318, -7.310e-7
0.322, -7.273e-7
0.326, -7.303e-7
0.330, -7.256e-7
0.334, -7.194e-7
0.338, -7.170e-7
0.342, -7.148e-7
0.346, -7.138e-7
0.350, -7.139e-7

File: Bare Fe3+_SPGE11.bin.csv
June 8, 2022   14:06:27
Differential Pulse Voltammetry
File: e:\bare electrode\bare fe3+_spge11.bin.csv
Data Source:  Experiment
Instrument Model:  CHI650E
Data Proc:  Smoothing
Header:
Note:

Init E (V) = -0.15
Final E (V) = 0.35
Incr E (V) = 0.004
Amplitude (V) = 0.05
Pulse Width (sec) = 0.05
Sample Width (sec) = 0.0167
Pulse Period (sec) = 0.5
Quiet Time (sec) = 10
Sensitivity (A/V) = 0.001

Ep = 0.082V
ip = -2.962e-6A
Ap = -5.041e-7VA

Potential/V, Current/A

-0.146, -2.238e-6
-0.142, -2.201e-6
-0.138, -2.166e-6
-0.134, -2.131e-6
-0.130, -2.097e-6
-0.126, -2.064e-6
-0.122, -2.032e-6
-0.118, -1.998e-6
-0.114, -1.966e-6
-0.110, -1.946e-6
-0.106, -1.921e-6
-0.102, -1.901e-6
-0.098, -1.883e-6
-0.094, -1.861e-6
-0.090, -1.842e-6
-0.086, -1.826e-6
-0.082, -1.807e-6
-0.078, -1.800e-6
-0.074, -1.797e-6
-0.070, -1.794e-6
-0.066, -1.798e-6
-0.062, -1.805e-6
-0.058, -1.814e-6
-0.054, -1.841e-6
-0.050, -1.877e-6
-0.046, -1.931e-6
-0.042, -1.995e-6
-0.038, -2.051e-6
-0.034, -2.116e-6
-0.030, -2.181e-6
-0.026, -2.249e-6
-0.022, -2.334e-6
-0.018, -2.421e-6
-0.014, -2.505e-6
-0.010, -2.603e-6
-0.006, -2.703e-6
-0.002, -2.811e-6
0.002, -2.919e-6
0.006, -3.024e-6
0.010, -3.121e-6
0.014, -3.224e-6
0.018, -3.331e-6
0.022, -3.445e-6
0.026, -3.559e-6
0.030, -3.668e-6
0.034, -3.763e-6
0.038, -3.854e-6
0.042, -3.935e-6
0.046, -4.010e-6
0.050, -4.075e-6
0.054, -4.144e-6
0.058, -4.198e-6
0.062, -4.244e-6
0.066, -4.282e-6
0.070, -4.306e-6
0.074, -4.320e-6
0.078, -4.334e-6
0.082, -4.339e-6
0.086, -4.332e-6
0.090, -4.317e-6
0.094, -4.290e-6
0.098, -4.257e-6
0.102, -4.215e-6
0.106, -4.170e-6
0.110, -4.115e-6
0.114, -4.057e-6
0.118, -3.991e-6
0.122, -3.919e-6
0.126, -3.839e-6
0.130, -3.762e-6
0.134, -3.672e-6
0.138, -3.585e-6
0.142, -3.488e-6
0.146, -3.387e-6
0.150, -3.279e-6
0.154, -3.173e-6
0.158, -3.060e-6
0.162, -2.953e-6
0.166, -2.841e-6
0.170, -2.733e-6
0.174, -2.619e-6
0.178, -2.504e-6
0.182, -2.393e-6
0.186, -2.282e-6
0.190, -2.175e-6
0.194, -2.082e-6
0.198, -1.987e-6
0.202, -1.896e-6
0.206, -1.804e-6
0.210, -1.710e-6
0.214, -1.620e-6
0.218, -1.544e-6
0.222, -1.472e-6
0.226, -1.407e-6
0.230, -1.345e-6
0.234, -1.286e-6
0.238, -1.226e-6
0.242, -1.177e-6
0.246, -1.133e-6
0.250, -1.087e-6
0.254, -1.046e-6
0.258, -1.010e-6
0.262, -9.781e-7
0.266, -9.553e-7
0.270, -9.306e-7
0.274, -9.030e-7
0.278, -8.775e-7
0.282, -8.506e-7
0.286, -8.328e-7
0.290, -8.184e-7
0.294, -8.001e-7
0.298, -7.826e-7
0.302, -7.702e-7
0.306, -7.546e-7
0.310, -7.419e-7
0.314, -7.339e-7
0.318, -7.214e-7
0.322, -7.184e-7
0.326, -7.163e-7
0.330, -7.168e-7
0.334, -7.120e-7
0.338, -7.108e-7
0.342, -7.066e-7
0.346, -7.007e-7
0.350, -6.931e-7

File: Bare Fe3+_SPGE12.bin.csv
June 8, 2022   14:04:09
Differential Pulse Voltammetry
File: e:\bare electrode\bare fe3+_spge12.bin.csv
Data Source:  Experiment
Instrument Model:  CHI650E
Data Proc:  Smoothing
Header:
Note:

Init E (V) = -0.15
Final E (V) = 0.35
Incr E (V) = 0.004
Amplitude (V) = 0.05
Pulse Width (sec) = 0.05
Sample Width (sec) = 0.0167
Pulse Period (sec) = 0.5
Quiet Time (sec) = 10
Sensitivity (A/V) = 0.001

Ep = 0.082V
ip = -3.319e-6A
Ap = -5.533e-7VA

Potential/V, Current/A

-0.146, -3.080e-6
-0.142, -3.043e-6
-0.138, -3.006e-6
-0.134, -2.969e-6
-0.130, -2.934e-6
-0.126, -2.890e-6
-0.122, -2.854e-6
-0.118, -2.816e-6
-0.114, -2.784e-6
-0.110, -2.751e-6
-0.106, -2.724e-6
-0.102, -2.701e-6
-0.098, -2.681e-6
-0.094, -2.667e-6
-0.090, -2.650e-6
-0.086, -2.628e-6
-0.082, -2.604e-6
-0.078, -2.579e-6
-0.074, -2.557e-6
-0.070, -2.539e-6
-0.066, -2.526e-6
-0.062, -2.528e-6
-0.058, -2.534e-6
-0.054, -2.549e-6
-0.050, -2.577e-6
-0.046, -2.609e-6
-0.042, -2.646e-6
-0.038, -2.691e-6
-0.034, -2.738e-6
-0.030, -2.792e-6
-0.026, -2.857e-6
-0.022, -2.919e-6
-0.018, -2.986e-6
-0.014, -3.060e-6
-0.010, -3.138e-6
-0.006, -3.223e-6
-0.002, -3.319e-6
0.002, -3.414e-6
0.006, -3.520e-6
0.010, -3.635e-6
0.014, -3.762e-6
0.018, -3.888e-6
0.022, -4.015e-6
0.026, -4.135e-6
0.030, -4.245e-6
0.034, -4.354e-6
0.038, -4.471e-6
0.042, -4.581e-6
0.046, -4.689e-6
0.050, -4.790e-6
0.054, -4.873e-6
0.058, -4.948e-6
0.062, -5.015e-6
0.066, -5.073e-6
0.070, -5.120e-6
0.074, -5.161e-6
0.078, -5.170e-6
0.082, -5.174e-6
0.086, -5.160e-6
0.090, -5.134e-6
0.094, -5.103e-6
0.098, -5.070e-6
0.102, -5.017e-6
0.106, -4.964e-6
0.110, -4.905e-6
0.114, -4.840e-6
0.118, -4.767e-6
0.122, -4.684e-6
0.126, -4.590e-6
0.130, -4.489e-6
0.134, -4.387e-6
0.138, -4.288e-6
0.142, -4.181e-6
0.146, -4.069e-6
0.150, -3.951e-6
0.154, -3.825e-6
0.158, -3.694e-6
0.162, -3.573e-6
0.166, -3.447e-6
0.170, -3.322e-6
0.174, -3.197e-6
0.178, -3.069e-6
0.182, -2.943e-6
0.186, -2.820e-6
0.190, -2.697e-6
0.194, -2.577e-6
0.198, -2.465e-6
0.202, -2.349e-6
0.206, -2.238e-6
0.210, -2.132e-6
0.214, -2.028e-6
0.218, -1.929e-6
0.222, -1.843e-6
0.226, -1.756e-6
0.230, -1.676e-6
0.234, -1.599e-6
0.238, -1.519e-6
0.242, -1.442e-6
0.246, -1.374e-6
0.250, -1.309e-6
0.254, -1.251e-6
0.258, -1.199e-6
0.262, -1.148e-6
0.266, -1.103e-6
0.270, -1.062e-6
0.274, -1.021e-6
0.278, -9.788e-7
0.282, -9.471e-7
0.286, -9.138e-7
0.290, -8.858e-7
0.294, -8.604e-7
0.298, -8.348e-7
0.302, -8.111e-7
0.306, -7.909e-7
0.310, -7.717e-7
0.314, -7.534e-7
0.318, -7.454e-7
0.322, -7.344e-7
0.326, -7.280e-7
0.330, -7.185e-7
0.334, -7.133e-7
0.338, -6.994e-7
0.342, -6.940e-7
0.346, -6.919e-7
0.350, -6.931e-7

File: Bare Fe3+_SPGE13.bin.csv
June 8, 2022   13:56:58
Differential Pulse Voltammetry
File: e:\bare electrode\bare fe3+_spge13.bin.csv
Data Source:  Experiment
Instrument Model:  CHI650E
Data Proc:  Smoothing
Header:
Note:

Init E (V) = -0.15
Final E (V) = 0.35
Incr E (V) = 0.004
Amplitude (V) = 0.05
Pulse Width (sec) = 0.05
Sample Width (sec) = 0.0167
Pulse Period (sec) = 0.5
Quiet Time (sec) = 10
Sensitivity (A/V) = 0.001

Ep = 0.054V
ip = -6.385e-6A
Ap = -1.191e-6VA

Potential/V, Current/A

-0.146, -2.300e-6
-0.142, -2.256e-6
-0.138, -2.224e-6
-0.134, -2.204e-6
-0.130, -2.199e-6
-0.126, -2.201e-6
-0.122, -2.211e-6
-0.118, -2.230e-6
-0.114, -2.243e-6
-0.110, -2.260e-6
-0.106, -2.284e-6
-0.102, -2.307e-6
-0.098, -2.339e-6
-0.094, -2.375e-6
-0.090, -2.419e-6
-0.086, -2.471e-6
-0.082, -2.533e-6
-0.078, -2.600e-6
-0.074, -2.675e-6
-0.070, -2.754e-6
-0.066, -2.837e-6
-0.062, -2.928e-6
-0.058, -3.026e-6
-0.054, -3.149e-6
-0.050, -3.285e-6
-0.046, -3.441e-6
-0.042, -3.605e-6
-0.038, -3.783e-6
-0.034, -3.966e-6
-0.030, -4.167e-6
-0.026, -4.368e-6
-0.022, -4.585e-6
-0.018, -4.812e-6
-0.014, -5.057e-6
-0.010, -5.305e-6
-0.006, -5.560e-6
-0.002, -5.812e-6
0.002, -6.070e-6
0.006, -6.336e-6
0.010, -6.605e-6
0.014, -6.849e-6
0.018, -7.080e-6
0.022, -7.283e-6
0.026, -7.457e-6
0.030, -7.600e-6
0.034, -7.723e-6
0.038, -7.815e-6
0.042, -7.887e-6
0.046, -7.938e-6
0.050, -7.989e-6
0.054, -8.005e-6
0.058, -7.987e-6
0.062, -7.927e-6
0.066, -7.829e-6
0.070, -7.702e-6
0.074, -7.576e-6
0.078, -7.430e-6
0.082, -7.311e-6
0.086, -7.197e-6
0.090, -7.080e-6
0.094, -6.949e-6
0.098, -6.797e-6
0.102, -6.625e-6
0.106, -6.480e-6
0.110, -6.329e-6
0.114, -6.180e-6
0.118, -6.033e-6
0.122, -5.890e-6
0.126, -5.754e-6
0.130, -5.626e-6
0.134, -5.504e-6
0.138, -5.384e-6
0.142, -5.270e-6
0.146, -5.157e-6
0.150, -5.048e-6
0.154, -4.940e-6
0.158, -4.839e-6
0.162, -4.730e-6
0.166, -4.614e-6
0.170, -4.488e-6
0.174, -4.355e-6
0.178, -4.222e-6
0.182, -4.091e-6
0.186, -3.947e-6
0.190, -3.797e-6
0.194, -3.638e-6
0.198, -3.474e-6
0.202, -3.313e-6
0.206, -3.155e-6
0.210, -2.989e-6
0.214, -2.823e-6
0.218, -2.654e-6
0.222, -2.490e-6
0.226, -2.329e-6
0.230, -2.178e-6
0.234, -2.031e-6
0.238, -1.895e-6
0.242, -1.763e-6
0.246, -1.645e-6
0.250, -1.537e-6
0.254, -1.438e-6
0.258, -1.354e-6
0.262, -1.274e-6
0.266, -1.199e-6
0.270, -1.126e-6
0.274, -1.062e-6
0.278, -1.007e-6
0.282, -9.636e-7
0.286, -9.179e-7
0.290, -8.834e-7
0.294, -8.457e-7
0.298, -8.206e-7
0.302, -8.004e-7
0.306, -7.824e-7
0.310, -7.586e-7
0.314, -7.447e-7
0.318, -7.263e-7
0.322, -7.163e-7
0.326, -7.109e-7
0.330, -7.076e-7
0.334, -7.069e-7
0.338, -7.105e-7
0.342, -7.099e-7
0.346, -7.078e-7
0.350, -7.042e-7

File: Bare Fe3+_SPGE14.bin.csv
June 8, 2022   14:28:30
Differential Pulse Voltammetry
File: e:\bare electrode\bare fe3+_spge14.csv
Data Source:  Experiment
Instrument Model:  CHI650E
Data Proc:  Smoothing
Header:
Note:

Init E (V) = -0.15
Final E (V) = 0.35
Incr E (V) = 0.004
Amplitude (V) = 0.05
Pulse Width (sec) = 0.05
Sample Width (sec) = 0.0167
Pulse Period (sec) = 0.5
Quiet Time (sec) = 10
Sensitivity (A/V) = 0.001

Ep = 0.086V
ip = -3.418e-6A
Ap = -6.605e-7VA

Potential/V, Current/A

-0.146, -2.998e-6
-0.142, -2.931e-6
-0.138, -2.873e-6
-0.134, -2.824e-6
-0.130, -2.787e-6
-0.126, -2.756e-6
-0.122, -2.726e-6
-0.118, -2.695e-6
-0.114, -2.665e-6
-0.110, -2.633e-6
-0.106, -2.603e-6
-0.102, -2.580e-6
-0.098, -2.560e-6
-0.094, -2.539e-6
-0.090, -2.529e-6
-0.086, -2.517e-6
-0.082, -2.503e-6
-0.078, -2.498e-6
-0.074, -2.492e-6
-0.070, -2.489e-6
-0.066, -2.491e-6
-0.062, -2.503e-6
-0.058, -2.520e-6
-0.054, -2.549e-6
-0.050, -2.589e-6
-0.046, -2.638e-6
-0.042, -2.694e-6
-0.038, -2.753e-6
-0.034, -2.814e-6
-0.030, -2.878e-6
-0.026, -2.952e-6
-0.022, -3.034e-6
-0.018, -3.127e-6
-0.014, -3.222e-6
-0.010, -3.318e-6
-0.006, -3.413e-6
-0.002, -3.514e-6
0.002, -3.622e-6
0.006, -3.744e-6
0.010, -3.880e-6
0.014, -4.014e-6
0.018, -4.138e-6
0.022, -4.258e-6
0.026, -4.371e-6
0.030, -4.484e-6
0.034, -4.589e-6
0.038, -4.686e-6
0.042, -4.770e-6
0.046, -4.855e-6
0.050, -4.927e-6
0.054, -4.988e-6
0.058, -5.034e-6
0.062, -5.081e-6
0.066, -5.125e-6
0.070, -5.165e-6
0.074, -5.196e-6
0.078, -5.217e-6
0.082, -5.227e-6
0.086, -5.235e-6
0.090, -5.230e-6
0.094, -5.211e-6
0.098, -5.187e-6
0.102, -5.161e-6
0.106, -5.131e-6
0.110, -5.105e-6
0.114, -5.071e-6
0.118, -5.036e-6
0.122, -4.994e-6
0.126, -4.945e-6
0.130, -4.889e-6
0.134, -4.838e-6
0.138, -4.776e-6
0.142, -4.711e-6
0.146, -4.636e-6
0.150, -4.556e-6
0.154, -4.470e-6
0.158, -4.387e-6
0.162, -4.289e-6
0.166, -4.187e-6
0.170, -4.078e-6
0.174, -3.967e-6
0.178, -3.844e-6
0.182, -3.714e-6
0.186, -3.572e-6
0.190, -3.433e-6
0.194, -3.288e-6
0.198, -3.155e-6
0.202, -3.016e-6
0.206, -2.871e-6
0.210, -2.724e-6
0.214, -2.580e-6
0.218, -2.437e-6
0.222, -2.310e-6
0.226, -2.188e-6
0.230, -2.073e-6
0.234, -1.963e-6
0.238, -1.859e-6
0.242, -1.756e-6
0.246, -1.660e-6
0.250, -1.564e-6
0.254, -1.483e-6
0.258, -1.407e-6
0.262, -1.341e-6
0.266, -1.274e-6
0.270, -1.213e-6
0.274, -1.151e-6
0.278, -1.097e-6
0.282, -1.048e-6
0.286, -1.010e-6
0.290, -9.696e-7
0.294, -9.347e-7
0.298, -9.058e-7
0.302, -8.850e-7
0.306, -8.603e-7
0.310, -8.436e-7
0.314, -8.217e-7
0.318, -8.067e-7
0.322, -7.869e-7
0.326, -7.805e-7
0.330, -7.622e-7
0.334, -7.551e-7
0.338, -7.464e-7
0.342, -7.428e-7
0.346, -7.431e-7
0.350, -7.474e-7

File: Bare Fe3+_SPGE15.bin.csv
June 8, 2022   14:53:47
Differential Pulse Voltammetry
File: e:\bare electrode\bare fe3+_spge15.bin.csv
Data Source:  Experiment
Instrument Model:  CHI650E
Data Proc:  Smoothing
Header:
Note:

Init E (V) = -0.15
Final E (V) = 0.35
Incr E (V) = 0.004
Amplitude (V) = 0.05
Pulse Width (sec) = 0.05
Sample Width (sec) = 0.0167
Pulse Period (sec) = 0.5
Quiet Time (sec) = 10
Sensitivity (A/V) = 0.001

Ep = 0.098V
ip = -1.087e-5A
Ap = -2.046e-6VA

Potential/V, Current/A

-0.146, -1.705e-6
-0.142, -1.653e-6
-0.138, -1.612e-6
-0.134, -1.581e-6
-0.130, -1.562e-6
-0.126, -1.553e-6
-0.122, -1.552e-6
-0.118, -1.560e-6
-0.114, -1.574e-6
-0.110, -1.594e-6
-0.106, -1.617e-6
-0.102, -1.650e-6
-0.098, -1.691e-6
-0.094, -1.741e-6
-0.090, -1.795e-6
-0.086, -1.857e-6
-0.082, -1.922e-6
-0.078, -2.004e-6
-0.074, -2.093e-6
-0.070, -2.198e-6
-0.066, -2.308e-6
-0.062, -2.427e-6
-0.058, -2.560e-6
-0.054, -2.711e-6
-0.050, -2.871e-6
-0.046, -3.049e-6
-0.042, -3.234e-6
-0.038, -3.441e-6
-0.034, -3.669e-6
-0.030, -3.917e-6
-0.026, -4.175e-6
-0.022, -4.451e-6
-0.018, -4.736e-6
-0.014, -5.033e-6
-0.010, -5.341e-6
-0.006, -5.658e-6
-0.002, -5.959e-6
0.002, -6.237e-6
0.006, -6.455e-6
0.010, -6.592e-6
0.014, -6.665e-6
0.018, -6.730e-6
0.022, -6.838e-6
0.026, -7.033e-6
0.030, -7.320e-6
0.034, -7.672e-6
0.038, -8.056e-6
0.042, -8.462e-6
0.046, -8.873e-6
0.050, -9.284e-6
0.054, -9.697e-6
0.058, -1.011e-5
0.062, -1.050e-5
0.066, -1.086e-5
0.070, -1.118e-5
0.074, -1.147e-5
0.078, -1.172e-5
0.082, -1.195e-5
0.086, -1.214e-5
0.090, -1.228e-5
0.094, -1.238e-5
0.098, -1.243e-5
0.102, -1.243e-5
0.106, -1.238e-5
0.110, -1.226e-5
0.114, -1.206e-5
0.118, -1.185e-5
0.122, -1.163e-5
0.126, -1.145e-5
0.130, -1.130e-5
0.134, -1.112e-5
0.138, -1.088e-5
0.142, -1.061e-5
0.146, -1.031e-5
0.150, -1.002e-5
0.154, -9.736e-6
0.158, -9.445e-6
0.162, -9.159e-6
0.166, -8.867e-6
0.170, -8.576e-6
0.174, -8.289e-6
0.178, -8.010e-6
0.182, -7.723e-6
0.186, -7.452e-6
0.190, -7.185e-6
0.194, -6.928e-6
0.198, -6.675e-6
0.202, -6.428e-6
0.206, -6.180e-6
0.210, -5.948e-6
0.214, -5.726e-6
0.218, -5.518e-6
0.222, -5.310e-6
0.226, -5.111e-6
0.230, -4.920e-6
0.234, -4.742e-6
0.238, -4.568e-6
0.242, -4.402e-6
0.246, -4.237e-6
0.250, -4.074e-6
0.254, -3.913e-6
0.258, -3.756e-6
0.262, -3.601e-6
0.266, -3.444e-6
0.270, -3.294e-6
0.274, -3.146e-6
0.278, -3.005e-6
0.282, -2.872e-6
0.286, -2.745e-6
0.290, -2.620e-6
0.294, -2.498e-6
0.298, -2.379e-6
0.302, -2.269e-6
0.306, -2.165e-6
0.310, -2.072e-6
0.314, -1.985e-6
0.318, -1.906e-6
0.322, -1.837e-6
0.326, -1.773e-6
0.330, -1.717e-6
0.334, -1.665e-6
0.338, -1.620e-6
0.342, -1.581e-6
0.346, -1.548e-6
0.350, -1.522e-6

File: Bare Fe3+_SPGE16.bin.csv
June 8, 2022   14:43:58
Differential Pulse Voltammetry
File: e:\bare electrode\bare fe3+_spge16.bin.csv
Data Source:  Experiment
Instrument Model:  CHI650E
Data Proc:  Smoothing
Header:
Note:

Init E (V) = -0.15
Final E (V) = 0.35
Incr E (V) = 0.004
Amplitude (V) = 0.05
Pulse Width (sec) = 0.05
Sample Width (sec) = 0.0167
Pulse Period (sec) = 0.5
Quiet Time (sec) = 10
Sensitivity (A/V) = 0.001

Ep = 0.082V
ip = -4.730e-6A
Ap = -8.520e-7VA

Potential/V, Current/A

-0.146, -2.782e-6
-0.142, -2.728e-6
-0.138, -2.682e-6
-0.134, -2.644e-6
-0.130, -2.619e-6
-0.126, -2.591e-6
-0.122, -2.564e-6
-0.118, -2.534e-6
-0.114, -2.506e-6
-0.110, -2.477e-6
-0.106, -2.452e-6
-0.102, -2.431e-6
-0.098, -2.415e-6
-0.094, -2.404e-6
-0.090, -2.393e-6
-0.086, -2.384e-6
-0.082, -2.377e-6
-0.078, -2.380e-6
-0.074, -2.382e-6
-0.070, -2.388e-6
-0.066, -2.394e-6
-0.062, -2.408e-6
-0.058, -2.434e-6
-0.054, -2.476e-6
-0.050, -2.527e-6
-0.046, -2.592e-6
-0.042, -2.667e-6
-0.038, -2.751e-6
-0.034, -2.845e-6
-0.030, -2.951e-6
-0.026, -3.060e-6
-0.022, -3.173e-6
-0.018, -3.294e-6
-0.014, -3.426e-6
-0.010, -3.563e-6
-0.006, -3.706e-6
-0.002, -3.855e-6
0.002, -4.012e-6
0.006, -4.184e-6
0.010, -4.370e-6
0.014, -4.558e-6
0.018, -4.745e-6
0.022, -4.927e-6
0.026, -5.107e-6
0.030, -5.280e-6
0.034, -5.437e-6
0.038, -5.579e-6
0.042, -5.713e-6
0.046, -5.831e-6
0.050, -5.941e-6
0.054, -6.039e-6
0.058, -6.124e-6
0.062, -6.194e-6
0.066, -6.263e-6
0.070, -6.346e-6
0.074, -6.421e-6
0.078, -6.469e-6
0.082, -6.482e-6
0.086, -6.449e-6
0.090, -6.386e-6
0.094, -6.329e-6
0.098, -6.272e-6
0.102, -6.215e-6
0.106, -6.160e-6
0.110, -6.097e-6
0.114, -6.026e-6
0.118, -5.954e-6
0.122, -5.878e-6
0.126, -5.796e-6
0.130, -5.711e-6
0.134, -5.617e-6
0.138, -5.522e-6
0.142, -5.422e-6
0.146, -5.315e-6
0.150, -5.202e-6
0.154, -5.089e-6
0.158, -4.968e-6
0.162, -4.836e-6
0.166, -4.695e-6
0.170, -4.548e-6
0.174, -4.391e-6
0.178, -4.227e-6
0.182, -4.062e-6
0.186, -3.891e-6
0.190, -3.719e-6
0.194, -3.547e-6
0.198, -3.377e-6
0.202, -3.204e-6
0.206, -3.034e-6
0.210, -2.871e-6
0.214, -2.709e-6
0.218, -2.555e-6
0.222, -2.408e-6
0.226, -2.266e-6
0.230, -2.126e-6
0.234, -2.006e-6
0.238, -1.888e-6
0.242, -1.777e-6
0.246, -1.672e-6
0.250, -1.580e-6
0.254, -1.492e-6
0.258, -1.423e-6
0.262, -1.345e-6
0.266, -1.275e-6
0.270, -1.206e-6
0.274, -1.151e-6
0.278, -1.098e-6
0.282, -1.058e-6
0.286, -1.015e-6
0.290, -9.818e-7
0.294, -9.507e-7
0.298, -9.218e-7
0.302, -8.930e-7
0.306, -8.711e-7
0.310, -8.527e-7
0.314, -8.375e-7
0.318, -8.253e-7
0.322, -8.101e-7
0.326, -7.985e-7
0.330, -7.881e-7
0.334, -7.827e-7
0.338, -7.746e-7
0.342, -7.705e-7
0.346, -7.684e-7
0.350, -7.683e-7