Folder: lucian/Experiments/Lab Data/8.8.22/DPV/csv/Bare Electrode

File: Bare Fe3+_SPGE1.bin.csv
8-Jun, 2022   14:16:24,,,,,,,,,,
Differential Pulse Voltammetry,,,,,,,,,,,
File: e:\bare electrode\bare fe3+_spge1.bin.csv,,,,,,,,,,,
Data Source:  Experiment,,,,,,,,,,,
Instrument Model:  CHI650E,,,,,,,,,,,
Data Proc:  Smoothing,,,,,,,,,,,
Header: ,,,,,,,,,,,
Note: ,,,,,,,,,,,
,,,,,,,,,,,
Init E (V) = -0.15,,,,,,,,,,,
Final E (V) = 0.35,,,,,,,,,,,
Incr E (V) = 0.004,,,,,,,,,,,
Amplitude (V) = 0.05,,,,,,,,,,,
Pulse Width (sec) = 0.05,,,,,,,,,,,
Sample Width (sec) = 0.0167,,,,,,,,,,,
Pulse Period (sec) = 0.5,,,,,,,,,,,
Quiet Time (sec) = 10,,,,,,,,,,,
Sensitivity (A/V) = 0.001,,,,,,,,,,,
,,,,,,,,,,,
Ep = 0.078V,,,,,,,,,,,
ip = -6.780e-6A,,,,,,,,,,,
Ap = -1.158e-6VA,,,,,,,,,,,
,,,,,,,,,,,
Potential/V, Current/A,,,,,,,,,,
,,,,,,,,,,,
-0.146,-2.07E-06,-2.75E-06,-2.83E-06,-2.48E-06,-2.87E-06,-2.78E-06,-1.85E-06,-2.03E-06,-2.96E-06,-2.85E-06,-2.55E-06
-0.138,-2.03E-06,-2.64E-06,-2.72E-06,-2.44E-06,-2.79E-06,-2.70E-06,-1.76E-06,-1.95E-06,-2.87E-06,-2.78E-06,-2.47E-06
-0.13,-2.01E-06,-2.59E-06,-2.65E-06,-2.41E-06,-2.73E-06,-2.64E-06,-1.71E-06,-1.89E-06,-2.81E-06,-2.73E-06,-2.42E-06
-0.122,-1.98E-06,-2.56E-06,-2.61E-06,-2.37E-06,-2.69E-06,-2.62E-06,-1.70E-06,-1.84E-06,-2.78E-06,-2.72E-06,-2.39E-06
-0.114,-1.97E-06,-2.53E-06,-2.58E-06,-2.34E-06,-2.66E-06,-2.62E-06,-1.71E-06,-1.79E-06,-2.77E-06,-2.73E-06,-2.37E-06
-0.106,-1.97E-06,-2.50E-06,-2.55E-06,-2.32E-06,-2.65E-06,-2.64E-06,-1.72E-06,-1.74E-06,-2.75E-06,-2.73E-06,-2.36E-06
-0.098,-1.98E-06,-2.48E-06,-2.53E-06,-2.31E-06,-2.65E-06,-2.66E-06,-1.75E-06,-1.69E-06,-2.73E-06,-2.74E-06,-2.35E-06
-0.09,-2.00E-06,-2.47E-06,-2.52E-06,-2.31E-06,-2.66E-06,-2.69E-06,-1.81E-06,-1.66E-06,-2.76E-06,-2.79E-06,-2.37E-06
-0.082,-2.03E-06,-2.48E-06,-2.54E-06,-2.33E-06,-2.69E-06,-2.74E-06,-1.88E-06,-1.64E-06,-2.81E-06,-2.87E-06,-2.40E-06
-0.074,-2.08E-06,-2.50E-06,-2.56E-06,-2.35E-06,-2.74E-06,-2.83E-06,-1.96E-06,-1.64E-06,-2.86E-06,-2.97E-06,-2.45E-06
-0.066,-2.15E-06,-2.53E-06,-2.60E-06,-2.38E-06,-2.80E-06,-2.94E-06,-2.08E-06,-1.64E-06,-2.93E-06,-3.10E-06,-2.51E-06
-0.058,-2.26E-06,-2.57E-06,-2.64E-06,-2.44E-06,-2.86E-06,-3.07E-06,-2.21E-06,-1.67E-06,-3.02E-06,-3.24E-06,-2.60E-06
-0.05,-2.43E-06,-2.66E-06,-2.75E-06,-2.57E-06,-2.98E-06,-3.24E-06,-2.41E-06,-1.72E-06,-3.18E-06,-3.43E-06,-2.74E-06
-0.042,-2.64E-06,-2.80E-06,-2.90E-06,-2.73E-06,-3.15E-06,-3.49E-06,-2.63E-06,-1.80E-06,-3.38E-06,-3.69E-06,-2.92E-06
-0.034,-2.88E-06,-2.96E-06,-3.07E-06,-2.93E-06,-3.34E-06,-3.79E-06,-2.88E-06,-1.91E-06,-3.61E-06,-3.99E-06,-3.14E-06
-0.026,-3.16E-06,-3.14E-06,-3.27E-06,-3.15E-06,-3.56E-06,-4.16E-06,-3.20E-06,-2.04E-06,-3.88E-06,-4.36E-06,-3.39E-06
-0.018,-3.49E-06,-3.36E-06,-3.52E-06,-3.43E-06,-3.81E-06,-4.58E-06,-3.58E-06,-2.20E-06,-4.19E-06,-4.78E-06,-3.69E-06
-0.01,-3.87E-06,-3.59E-06,-3.77E-06,-3.75E-06,-4.09E-06,-5.08E-06,-4.01E-06,-2.37E-06,-4.52E-06,-5.27E-06,-4.03E-06
-0.002,-4.31E-06,-3.85E-06,-4.04E-06,-4.10E-06,-4.40E-06,-5.66E-06,-4.46E-06,-2.59E-06,-4.89E-06,-5.82E-06,-4.41E-06
0.006,-4.82E-06,-4.15E-06,-4.33E-06,-4.49E-06,-4.73E-06,-6.28E-06,-4.89E-06,-2.83E-06,-5.31E-06,-6.40E-06,-4.82E-06
0.014,-5.36E-06,-4.48E-06,-4.64E-06,-4.94E-06,-5.09E-06,-6.93E-06,-5.29E-06,-3.08E-06,-5.74E-06,-7.03E-06,-5.26E-06
0.022,-5.92E-06,-4.81E-06,-4.95E-06,-5.40E-06,-5.45E-06,-7.61E-06,-5.68E-06,-3.33E-06,-6.19E-06,-7.69E-06,-5.70E-06
0.03,-6.44E-06,-5.12E-06,-5.22E-06,-5.86E-06,-5.76E-06,-8.26E-06,-6.10E-06,-3.55E-06,-6.60E-06,-8.32E-06,-6.12E-06
0.038,-6.92E-06,-5.40E-06,-5.43E-06,-6.28E-06,-6.03E-06,-8.87E-06,-6.58E-06,-3.75E-06,-6.94E-06,-8.88E-06,-6.51E-06
0.046,-7.35E-06,-5.64E-06,-5.60E-06,-6.65E-06,-6.27E-06,-9.42E-06,-7.16E-06,-3.94E-06,-7.23E-06,-9.37E-06,-6.86E-06
0.054,-7.73E-06,-5.82E-06,-5.72E-06,-6.96E-06,-6.46E-06,-9.89E-06,-7.79E-06,-4.09E-06,-7.48E-06,-9.75E-06,-7.17E-06
0.062,-8.04E-06,-5.95E-06,-5.80E-06,-7.22E-06,-6.58E-06,-1.03E-05,-8.34E-06,-4.21E-06,-7.67E-06,-1.00E-05,-7.41E-06
0.07,-8.20E-06,-6.03E-06,-5.84E-06,-7.37E-06,-6.66E-06,-1.04E-05,-8.82E-06,-4.29E-06,-7.80E-06,-1.01E-05,-7.56E-06
0.078,-8.24E-06,-6.05E-06,-5.85E-06,-7.39E-06,-6.69E-06,-1.04E-05,-9.22E-06,-4.33E-06,-7.82E-06,-1.01E-05,-7.62E-06
0.086,-8.17E-06,-6.04E-06,-5.83E-06,-7.31E-06,-6.66E-06,-1.03E-05,-9.50E-06,-4.33E-06,-7.75E-06,-9.98E-06,-7.58E-06
0.094,-8.00E-06,-6.00E-06,-5.78E-06,-7.13E-06,-6.56E-06,-9.97E-06,-9.62E-06,-4.29E-06,-7.61E-06,-9.70E-06,-7.47E-06
0.102,-7.75E-06,-5.91E-06,-5.73E-06,-6.89E-06,-6.42E-06,-9.60E-06,-9.55E-06,-4.21E-06,-7.40E-06,-9.32E-06,-7.28E-06
0.11,-7.42E-06,-5.79E-06,-5.64E-06,-6.58E-06,-6.24E-06,-9.13E-06,-9.46E-06,-4.09E-06,-7.14E-06,-8.84E-06,-7.03E-06
0.118,-7.05E-06,-5.65E-06,-5.55E-06,-6.23E-06,-6.03E-06,-8.58E-06,-9.35E-06,-3.95E-06,-6.82E-06,-8.28E-06,-6.75E-06
0.126,-6.65E-06,-5.50E-06,-5.45E-06,-5.85E-06,-5.80E-06,-7.97E-06,-9.05E-06,-3.78E-06,-6.47E-06,-7.69E-06,-6.42E-06
0.134,-6.24E-06,-5.34E-06,-5.35E-06,-5.45E-06,-5.55E-06,-7.32E-06,-8.66E-06,-3.58E-06,-6.10E-06,-7.05E-06,-6.06E-06
0.142,-5.83E-06,-5.15E-06,-5.22E-06,-5.03E-06,-5.30E-06,-6.64E-06,-8.22E-06,-3.36E-06,-5.71E-06,-6.43E-06,-5.69E-06
0.15,-5.43E-06,-4.95E-06,-5.09E-06,-4.60E-06,-5.07E-06,-5.98E-06,-7.76E-06,-3.13E-06,-5.29E-06,-5.83E-06,-5.31E-06
0.158,-5.04E-06,-4.73E-06,-4.94E-06,-4.19E-06,-4.80E-06,-5.37E-06,-7.31E-06,-2.92E-06,-4.89E-06,-5.27E-06,-4.94E-06
0.166,-4.68E-06,-4.49E-06,-4.76E-06,-3.80E-06,-4.50E-06,-4.78E-06,-6.88E-06,-2.70E-06,-4.48E-06,-4.76E-06,-4.58E-06
0.174,-4.35E-06,-4.23E-06,-4.55E-06,-3.43E-06,-4.20E-06,-4.23E-06,-6.47E-06,-2.48E-06,-4.07E-06,-4.27E-06,-4.23E-06
0.182,-4.04E-06,-3.96E-06,-4.30E-06,-3.10E-06,-3.89E-06,-3.73E-06,-6.09E-06,-2.27E-06,-3.68E-06,-3.81E-06,-3.89E-06
0.19,-3.72E-06,-3.67E-06,-4.02E-06,-2.81E-06,-3.58E-06,-3.26E-06,-5.75E-06,-2.06E-06,-3.30E-06,-3.38E-06,-3.55E-06
0.198,-3.42E-06,-3.37E-06,-3.73E-06,-2.52E-06,-3.26E-06,-2.84E-06,-5.43E-06,-1.87E-06,-2.93E-06,-3.00E-06,-3.24E-06
0.206,-3.14E-06,-3.07E-06,-3.42E-06,-2.26E-06,-2.96E-06,-2.48E-06,-5.11E-06,-1.70E-06,-2.60E-06,-2.66E-06,-2.94E-06
0.214,-2.85E-06,-2.78E-06,-3.09E-06,-2.03E-06,-2.67E-06,-2.15E-06,-4.82E-06,-1.54E-06,-2.31E-06,-2.34E-06,-2.66E-06
0.222,-2.58E-06,-2.50E-06,-2.79E-06,-1.83E-06,-2.41E-06,-1.87E-06,-4.56E-06,-1.41E-06,-2.04E-06,-2.07E-06,-2.41E-06
0.23,-2.35E-06,-2.24E-06,-2.49E-06,-1.65E-06,-2.16E-06,-1.63E-06,-4.29E-06,-1.30E-06,-1.81E-06,-1.83E-06,-2.17E-06
0.238,-2.11E-06,-2.01E-06,-2.21E-06,-1.49E-06,-1.93E-06,-1.42E-06,-4.02E-06,-1.20E-06,-1.61E-06,-1.62E-06,-1.96E-06
0.246,-1.88E-06,-1.81E-06,-1.97E-06,-1.37E-06,-1.74E-06,-1.24E-06,-3.74E-06,-1.13E-06,-1.43E-06,-1.44E-06,-1.77E-06
0.254,-1.68E-06,-1.62E-06,-1.76E-06,-1.24E-06,-1.57E-06,-1.09E-06,-3.45E-06,-1.07E-06,-1.28E-06,-1.29E-06,-1.61E-06
0.262,-1.51E-06,-1.45E-06,-1.58E-06,-1.15E-06,-1.42E-06,-9.79E-07,-3.17E-06,-1.01E-06,-1.16E-06,-1.16E-06,-1.46E-06
0.27,-1.35E-06,-1.31E-06,-1.41E-06,-1.06E-06,-1.29E-06,-8.87E-07,-2.88E-06,-9.70E-07,-1.05E-06,-1.06E-06,-1.33E-06
0.278,-1.22E-06,-1.19E-06,-1.27E-06,-9.86E-07,-1.18E-06,-8.10E-07,-2.61E-06,-9.30E-07,-9.66E-07,-9.71E-07,-1.21E-06
0.286,-1.10E-06,-1.09E-06,-1.16E-06,-9.30E-07,-1.09E-06,-7.49E-07,-2.37E-06,-8.90E-07,-8.99E-07,-9.01E-07,-1.12E-06
0.294,-1.00E-06,-1.01E-06,-1.08E-06,-8.80E-07,-1.01E-06,-7.06E-07,-2.12E-06,-8.53E-07,-8.46E-07,-8.50E-07,-1.03E-06
0.302,-9.15E-07,-9.35E-07,-1.01E-06,-8.35E-07,-9.57E-07,-6.64E-07,-1.90E-06,-8.24E-07,-8.11E-07,-8.12E-07,-9.66E-07
0.31,-8.49E-07,-8.87E-07,-9.53E-07,-7.96E-07,-9.05E-07,-6.37E-07,-1.70E-06,-8.03E-07,-7.84E-07,-7.63E-07,-9.08E-07
0.318,-7.99E-07,-8.58E-07,-9.09E-07,-7.69E-07,-8.66E-07,-6.22E-07,-1.54E-06,-7.75E-07,-7.62E-07,-7.31E-07,-8.63E-07
0.326,-7.61E-07,-8.18E-07,-8.77E-07,-7.53E-07,-8.34E-07,-6.15E-07,-1.41E-06,-7.56E-07,-7.48E-07,-7.30E-07,-8.30E-07
0.334,-7.23E-07,-7.96E-07,-8.60E-07,-7.40E-07,-8.08E-07,-6.19E-07,-1.30E-06,-7.42E-07,-7.35E-07,-7.19E-07,-8.04E-07
0.342,-6.99E-07,-7.86E-07,-8.46E-07,-7.23E-07,-7.98E-07,-6.09E-07,-1.22E-06,-7.27E-07,-7.30E-07,-7.15E-07,-7.86E-07
0.35,-6.87E-07,-7.77E-07,-8.43E-07,-7.17E-07,-7.73E-07,-5.96E-07,-1.16E-06,-7.10E-07,-7.34E-07,-7.14E-07,-7.71E-07

File: Bare Fe3+_SPGE2.bin.csv
June 8, 2022   14:24:59
Differential Pulse Voltammetry
File: e:\bare electrode\bare fe3+_spge2.bin.csv
Data Source:  Experiment
Instrument Model:  CHI650E
Data Proc:  Smoothing
Header:
Note:

Init E (V) = -0.15
Final E (V) = 0.35
Incr E (V) = 0.004
Amplitude (V) = 0.05
Pulse Width (sec) = 0.05
Sample Width (sec) = 0.0167
Pulse Period (sec) = 0.5
Quiet Time (sec) = 10
Sensitivity (A/V) = 0.001

Ep = 0.078V
ip = -4.234e-6A
Ap = -8.076e-7VA

Potential/V, Current/A

-0.146, -2.747e-6
-0.142, -2.689e-6
-0.138, -2.642e-6
-0.134, -2.607e-6
-0.130, -2.587e-6
-0.126, -2.576e-6
-0.122, -2.561e-6
-0.118, -2.548e-6
-0.114, -2.531e-6
-0.110, -2.519e-6
-0.106, -2.503e-6
-0.102, -2.492e-6
-0.098, -2.477e-6
-0.094, -2.469e-6
-0.090, -2.473e-6
-0.086, -2.475e-6
-0.082, -2.479e-6
-0.078, -2.493e-6
-0.074, -2.495e-6
-0.070, -2.507e-6
-0.066, -2.526e-6
-0.062, -2.547e-6
-0.058, -2.568e-6
-0.054, -2.611e-6
-0.050, -2.660e-6
-0.046, -2.728e-6
-0.042, -2.803e-6
-0.038, -2.884e-6
-0.034, -2.957e-6
-0.030, -3.046e-6
-0.026, -3.140e-6
-0.022, -3.245e-6
-0.018, -3.357e-6
-0.014, -3.477e-6
-0.010, -3.593e-6
-0.006, -3.718e-6
-0.002, -3.849e-6
0.002, -3.994e-6
0.006, -4.152e-6
0.010, -4.316e-6
0.014, -4.481e-6
0.018, -4.645e-6
0.022, -4.810e-6
0.026, -4.968e-6
0.030, -5.124e-6
0.034, -5.270e-6
0.038, -5.403e-6
0.042, -5.525e-6
0.046, -5.639e-6
0.050, -5.737e-6
0.054, -5.822e-6
0.058, -5.893e-6
0.062, -5.949e-6
0.066, -5.995e-6
0.070, -6.025e-6
0.074, -6.047e-6
0.078, -6.051e-6
0.082, -6.049e-6
0.086, -6.040e-6
0.090, -6.022e-6
0.094, -5.996e-6
0.098, -5.963e-6
0.102, -5.909e-6
0.106, -5.851e-6
0.110, -5.788e-6
0.114, -5.720e-6
0.118, -5.652e-6
0.122, -5.580e-6
0.126, -5.501e-6
0.130, -5.425e-6
0.134, -5.341e-6
0.138, -5.252e-6
0.142, -5.153e-6
0.146, -5.052e-6
0.150, -4.951e-6
0.154, -4.843e-6
0.158, -4.731e-6
0.162, -4.615e-6
0.166, -4.489e-6
0.170, -4.362e-6
0.174, -4.231e-6
0.178, -4.095e-6
0.182, -3.957e-6
0.186, -3.815e-6
0.190, -3.667e-6
0.194, -3.518e-6
0.198, -3.367e-6
0.202, -3.218e-6
0.206, -3.072e-6
0.210, -2.927e-6
0.214, -2.784e-6
0.218, -2.642e-6
0.222, -2.501e-6
0.226, -2.364e-6
0.230, -2.239e-6
0.234, -2.119e-6
0.238, -2.012e-6
0.242, -1.907e-6
0.246, -1.808e-6
0.250, -1.707e-6
0.254, -1.615e-6
0.258, -1.528e-6
0.262, -1.452e-6
0.266, -1.380e-6
0.270, -1.314e-6
0.274, -1.245e-6
0.278, -1.185e-6
0.282, -1.130e-6
0.286, -1.086e-6
0.290, -1.043e-6
0.294, -1.007e-6
0.298, -9.673e-7
0.302, -9.346e-7
0.306, -9.059e-7
0.310, -8.870e-7
0.314, -8.702e-7
0.318, -8.577e-7
0.322, -8.377e-7
0.326, -8.180e-7
0.330, -8.039e-7
0.334, -7.957e-7
0.338, -7.916e-7
0.342, -7.860e-7
0.346, -7.811e-7
0.350, -7.770e-7

File: Bare Fe3+_SPGE3.bin.csv
June 8, 2022   14:20:24
Differential Pulse Voltammetry
File: e:\bare electrode\bare fe3+_spge3.bin.csv
Data Source:  Experiment
Instrument Model:  CHI650E
Data Proc:  Smoothing
Header:
Note:

Init E (V) = -0.15
Final E (V) = 0.35
Incr E (V) = 0.004
Amplitude (V) = 0.05
Pulse Width (sec) = 0.05
Sample Width (sec) = 0.0167
Pulse Period (sec) = 0.5
Quiet Time (sec) = 10
Sensitivity (A/V) = 0.001

Ep = 0.074V
ip = -3.974e-6A
Ap = -8.269e-7VA

Potential/V, Current/A

-0.146, -2.826e-6
-0.142, -2.770e-6
-0.138, -2.723e-6
-0.134, -2.683e-6
-0.130, -2.653e-6
-0.126, -2.627e-6
-0.122, -2.610e-6
-0.118, -2.596e-6
-0.114, -2.579e-6
-0.110, -2.567e-6
-0.106, -2.550e-6
-0.102, -2.539e-6
-0.098, -2.527e-6
-0.094, -2.523e-6
-0.090, -2.522e-6
-0.086, -2.530e-6
-0.082, -2.535e-6
-0.078, -2.549e-6
-0.074, -2.563e-6
-0.070, -2.580e-6
-0.066, -2.595e-6
-0.062, -2.618e-6
-0.058, -2.642e-6
-0.054, -2.684e-6
-0.050, -2.745e-6
-0.046, -2.816e-6
-0.042, -2.900e-6
-0.038, -2.987e-6
-0.034, -3.073e-6
-0.030, -3.169e-6
-0.026, -3.274e-6
-0.022, -3.390e-6
-0.018, -3.515e-6
-0.014, -3.641e-6
-0.010, -3.772e-6
-0.006, -3.907e-6
-0.002, -4.039e-6
0.002, -4.182e-6
0.006, -4.332e-6
0.010, -4.485e-6
0.014, -4.643e-6
0.018, -4.800e-6
0.022, -4.948e-6
0.026, -5.089e-6
0.030, -5.220e-6
0.034, -5.333e-6
0.038, -5.434e-6
0.042, -5.522e-6
0.046, -5.598e-6
0.050, -5.660e-6
0.054, -5.715e-6
0.058, -5.760e-6
0.062, -5.800e-6
0.066, -5.829e-6
0.070, -5.841e-6
0.074, -5.847e-6
0.078, -5.847e-6
0.082, -5.838e-6
0.086, -5.825e-6
0.090, -5.807e-6
0.094, -5.784e-6
0.098, -5.761e-6
0.102, -5.727e-6
0.106, -5.686e-6
0.110, -5.638e-6
0.114, -5.593e-6
0.118, -5.552e-6
0.122, -5.500e-6
0.126, -5.454e-6
0.130, -5.403e-6
0.134, -5.346e-6
0.138, -5.288e-6
0.142, -5.224e-6
0.146, -5.153e-6
0.150, -5.086e-6
0.154, -5.011e-6
0.158, -4.935e-6
0.162, -4.847e-6
0.166, -4.756e-6
0.170, -4.656e-6
0.174, -4.550e-6
0.178, -4.425e-6
0.182, -4.299e-6
0.186, -4.159e-6
0.190, -4.020e-6
0.194, -3.878e-6
0.198, -3.733e-6
0.202, -3.575e-6
0.206, -3.416e-6
0.210, -3.251e-6
0.214, -3.089e-6
0.218, -2.935e-6
0.222, -2.785e-6
0.226, -2.634e-6
0.230, -2.489e-6
0.234, -2.344e-6
0.238, -2.207e-6
0.242, -2.083e-6
0.246, -1.970e-6
0.250, -1.861e-6
0.254, -1.764e-6
0.258, -1.667e-6
0.262, -1.578e-6
0.266, -1.489e-6
0.270, -1.412e-6
0.274, -1.339e-6
0.278, -1.273e-6
0.282, -1.207e-6
0.286, -1.159e-6
0.290, -1.110e-6
0.294, -1.075e-6
0.298, -1.043e-6
0.302, -1.013e-6
0.306, -9.761e-7
0.310, -9.528e-7
0.314, -9.272e-7
0.318, -9.086e-7
0.322, -8.914e-7
0.326, -8.773e-7
0.330, -8.679e-7
0.334, -8.598e-7
0.338, -8.504e-7
0.342, -8.455e-7
0.346, -8.431e-7
0.350, -8.431e-7

File: Bare Fe3+_SPGE4.bin.csv
June 8, 2022   14:10:19
Differential Pulse Voltammetry
File: e:\bare electrode\bare fe3+_spge4.bin.csv
Data Source:  Experiment
Instrument Model:  CHI650E
Data Proc:  Smoothing
Header:
Note:

Init E (V) = -0.15
Final E (V) = 0.35
Incr E (V) = 0.004
Amplitude (V) = 0.05
Pulse Width (sec) = 0.05
Sample Width (sec) = 0.0167
Pulse Period (sec) = 0.5
Quiet Time (sec) = 10
Sensitivity (A/V) = 0.001

Ep = 0.074V
ip = -5.717e-6A
Ap = -8.926e-7VA

Potential/V, Current/A

-0.146, -2.476e-6
-0.142, -2.460e-6
-0.138, -2.443e-6
-0.134, -2.427e-6
-0.130, -2.410e-6
-0.126, -2.389e-6
-0.122, -2.372e-6
-0.118, -2.355e-6
-0.114, -2.338e-6
-0.110, -2.324e-6
-0.106, -2.315e-6
-0.102, -2.303e-6
-0.098, -2.305e-6
-0.094, -2.307e-6
-0.090, -2.314e-6
-0.086, -2.320e-6
-0.082, -2.327e-6
-0.078, -2.332e-6
-0.074, -2.351e-6
-0.070, -2.363e-6
-0.066, -2.382e-6
-0.062, -2.407e-6
-0.058, -2.443e-6
-0.054, -2.494e-6
-0.050, -2.567e-6
-0.046, -2.646e-6
-0.042, -2.734e-6
-0.038, -2.826e-6
-0.034, -2.925e-6
-0.030, -3.031e-6
-0.026, -3.153e-6
-0.022, -3.285e-6
-0.018, -3.427e-6
-0.014, -3.581e-6
-0.010, -3.745e-6
-0.006, -3.916e-6
-0.002, -4.099e-6
0.002, -4.289e-6
0.006, -4.491e-6
0.010, -4.706e-6
0.014, -4.935e-6
0.018, -5.165e-6
0.022, -5.402e-6
0.026, -5.630e-6
0.030, -5.858e-6
0.034, -6.075e-6
0.038, -6.281e-6
0.042, -6.467e-6
0.046, -6.647e-6
0.050, -6.808e-6
0.054, -6.960e-6
0.058, -7.098e-6
0.062, -7.215e-6
0.066, -7.302e-6
0.070, -7.365e-6
0.074, -7.397e-6
0.078, -7.393e-6
0.082, -7.363e-6
0.086, -7.309e-6
0.090, -7.230e-6
0.094, -7.132e-6
0.098, -7.023e-6
0.102, -6.890e-6
0.106, -6.744e-6
0.110, -6.583e-6
0.114, -6.412e-6
0.118, -6.230e-6
0.122, -6.040e-6
0.126, -5.852e-6
0.130, -5.653e-6
0.134, -5.452e-6
0.138, -5.244e-6
0.142, -5.030e-6
0.146, -4.812e-6
0.150, -4.599e-6
0.154, -4.385e-6
0.158, -4.185e-6
0.162, -3.986e-6
0.166, -3.795e-6
0.170, -3.604e-6
0.174, -3.427e-6
0.178, -3.258e-6
0.182, -3.103e-6
0.186, -2.949e-6
0.190, -2.805e-6
0.194, -2.661e-6
0.198, -2.522e-6
0.202, -2.387e-6
0.206, -2.257e-6
0.210, -2.133e-6
0.214, -2.025e-6
0.218, -1.926e-6
0.222, -1.834e-6
0.226, -1.742e-6
0.230, -1.652e-6
0.234, -1.569e-6
0.238, -1.493e-6
0.242, -1.427e-6
0.246, -1.366e-6
0.250, -1.300e-6
0.254, -1.241e-6
0.258, -1.189e-6
0.262, -1.146e-6
0.266, -1.104e-6
0.270, -1.063e-6
0.274, -1.020e-6
0.278, -9.862e-7
0.282, -9.533e-7
0.286, -9.303e-7
0.290, -9.031e-7
0.294, -8.798e-7
0.298, -8.545e-7
0.302, -8.346e-7
0.306, -8.126e-7
0.310, -7.963e-7
0.314, -7.809e-7
0.318, -7.689e-7
0.322, -7.593e-7
0.326, -7.531e-7
0.330, -7.459e-7
0.334, -7.398e-7
0.338, -7.280e-7
0.342, -7.226e-7
0.346, -7.191e-7
0.350, -7.174e-7

File: Bare Fe3+_SPGE5.bin.csv
June 8, 2022   14:00:33
Differential Pulse Voltammetry
File: e:\bare electrode\bare fe3+_spge5.bin.csv
Data Source:  Experiment
Instrument Model:  CHI650E
Data Proc:  Smoothing
Header:
Note:

Init E (V) = -0.15
Final E (V) = 0.35
Incr E (V) = 0.004
Amplitude (V) = 0.05
Pulse Width (sec) = 0.05
Sample Width (sec) = 0.0167
Pulse Period (sec) = 0.5
Quiet Time (sec) = 10
Sensitivity (A/V) = 0.001

Ep = 0.078V
ip = -4.807e-6A
Ap = -8.864e-7VA

Potential/V, Current/A

-0.146, -2.871e-6
-0.142, -2.824e-6
-0.138, -2.785e-6
-0.134, -2.752e-6
-0.130, -2.730e-6
-0.126, -2.709e-6
-0.122, -2.690e-6
-0.118, -2.673e-6
-0.114, -2.663e-6
-0.110, -2.657e-6
-0.106, -2.651e-6
-0.102, -2.649e-6
-0.098, -2.651e-6
-0.094, -2.655e-6
-0.090, -2.660e-6
-0.086, -2.678e-6
-0.082, -2.688e-6
-0.078, -2.712e-6
-0.074, -2.743e-6
-0.070, -2.769e-6
-0.066, -2.796e-6
-0.062, -2.828e-6
-0.058, -2.859e-6
-0.054, -2.912e-6
-0.050, -2.980e-6
-0.046, -3.056e-6
-0.042, -3.147e-6
-0.038, -3.244e-6
-0.034, -3.339e-6
-0.030, -3.446e-6
-0.026, -3.558e-6
-0.022, -3.681e-6
-0.018, -3.814e-6
-0.014, -3.951e-6
-0.010, -4.092e-6
-0.006, -4.240e-6
-0.002, -4.397e-6
0.002, -4.557e-6
0.006, -4.726e-6
0.010, -4.905e-6
0.014, -5.089e-6
0.018, -5.273e-6
0.022, -5.445e-6
0.026, -5.604e-6
0.030, -5.756e-6
0.034, -5.903e-6
0.038, -6.034e-6
0.042, -6.159e-6
0.046, -6.268e-6
0.050, -6.374e-6
0.054, -6.463e-6
0.058, -6.532e-6
0.062, -6.584e-6
0.066, -6.627e-6
0.070, -6.658e-6
0.074, -6.683e-6
0.078, -6.692e-6
0.082, -6.684e-6
0.086, -6.659e-6
0.090, -6.618e-6
0.094, -6.561e-6
0.098, -6.497e-6
0.102, -6.418e-6
0.106, -6.336e-6
0.110, -6.244e-6
0.114, -6.141e-6
0.118, -6.033e-6
0.122, -5.916e-6
0.126, -5.796e-6
0.130, -5.677e-6
0.134, -5.551e-6
0.138, -5.428e-6
0.142, -5.304e-6
0.146, -5.191e-6
0.150, -5.073e-6
0.154, -4.945e-6
0.158, -4.800e-6
0.162, -4.653e-6
0.166, -4.497e-6
0.170, -4.352e-6
0.174, -4.204e-6
0.178, -4.048e-6
0.182, -3.894e-6
0.186, -3.737e-6
0.190, -3.578e-6
0.194, -3.416e-6
0.198, -3.263e-6
0.202, -3.105e-6
0.206, -2.958e-6
0.210, -2.813e-6
0.214, -2.674e-6
0.218, -2.537e-6
0.222, -2.410e-6
0.226, -2.287e-6
0.230, -2.163e-6
0.234, -2.045e-6
0.238, -1.931e-6
0.242, -1.829e-6
0.246, -1.738e-6
0.250, -1.656e-6
0.254, -1.574e-6
0.258, -1.499e-6
0.262, -1.423e-6
0.266, -1.358e-6
0.270, -1.289e-6
0.274, -1.233e-6
0.278, -1.181e-6
0.282, -1.134e-6
0.286, -1.089e-6
0.290, -1.050e-6
0.294, -1.009e-6
0.298, -9.816e-7
0.302, -9.569e-7
0.306, -9.301e-7
0.310, -9.048e-7
0.314, -8.864e-7
0.318, -8.659e-7
0.322, -8.498e-7
0.326, -8.338e-7
0.330, -8.214e-7
0.334, -8.081e-7
0.338, -8.072e-7
0.342, -7.979e-7
0.346, -7.863e-7
0.350, -7.726e-7

File: Bare Fe3+_SPGE6.bin.csv
June 8, 2022   13:24:48
Differential Pulse Voltammetry
File: e:\bare electrode\bare fe3+_spge6.bin.csv
Data Source:  Experiment
Instrument Model:  CHI650E
Data Proc:  Smoothing
Header:
Note:

Init E (V) = -0.15
Final E (V) = 0.35
Incr E (V) = 0.004
Amplitude (V) = 0.05
Pulse Width (sec) = 0.05
Sample Width (sec) = 0.0167
Pulse Period (sec) = 0.5
Quiet Time (sec) = 10
Sensitivity (A/V) = 0.001

Ep = 0.074V
ip = -8.711e-6A
Ap = -1.353e-6VA

Potential/V, Current/A

-0.146, -2.781e-6
-0.142, -2.734e-6
-0.138, -2.695e-6
-0.134, -2.663e-6
-0.130, -2.635e-6
-0.126, -2.621e-6
-0.122, -2.616e-6
-0.118, -2.615e-6
-0.114, -2.619e-6
-0.110, -2.629e-6
-0.106, -2.637e-6
-0.102, -2.648e-6
-0.098, -2.662e-6
-0.094, -2.671e-6
-0.090, -2.687e-6
-0.086, -2.709e-6
-0.082, -2.737e-6
-0.078, -2.774e-6
-0.074, -2.827e-6
-0.070, -2.879e-6
-0.066, -2.940e-6
-0.062, -2.999e-6
-0.058, -3.066e-6
-0.054, -3.142e-6
-0.050, -3.239e-6
-0.046, -3.355e-6
-0.042, -3.486e-6
-0.038, -3.634e-6
-0.034, -3.793e-6
-0.030, -3.967e-6
-0.026, -4.156e-6
-0.022, -4.361e-6
-0.018, -4.581e-6
-0.014, -4.823e-6
-0.010, -5.083e-6
-0.006, -5.367e-6
-0.002, -5.663e-6
0.002, -5.966e-6
0.006, -6.276e-6
0.010, -6.598e-6
0.014, -6.927e-6
0.018, -7.267e-6
0.022, -7.607e-6
0.026, -7.942e-6
0.030, -8.262e-6
0.034, -8.572e-6
0.038, -8.867e-6
0.042, -9.156e-6
0.046, -9.423e-6
0.050, -9.669e-6
0.054, -9.892e-6
0.058, -1.009e-5
0.062, -1.026e-5
0.066, -1.038e-5
0.070, -1.044e-5
0.074, -1.046e-5
0.078, -1.044e-5
0.082, -1.037e-5
0.086, -1.027e-5
0.090, -1.013e-5
0.094, -9.974e-6
0.098, -9.792e-6
0.102, -9.596e-6
0.106, -9.371e-6
0.110, -9.127e-6
0.114, -8.861e-6
0.118, -8.579e-6
0.122, -8.280e-6
0.126, -7.968e-6
0.130, -7.644e-6
0.134, -7.317e-6
0.138, -6.981e-6
0.142, -6.641e-6
0.146, -6.310e-6
0.150, -5.984e-6
0.154, -5.667e-6
0.158, -5.367e-6
0.162, -5.072e-6
0.166, -4.781e-6
0.170, -4.499e-6
0.174, -4.234e-6
0.178, -3.974e-6
0.182, -3.726e-6
0.186, -3.487e-6
0.190, -3.257e-6
0.194, -3.039e-6
0.198, -2.842e-6
0.202, -2.655e-6
0.206, -2.481e-6
0.210, -2.310e-6
0.214, -2.149e-6
0.218, -1.998e-6
0.222, -1.865e-6
0.226, -1.743e-6
0.230, -1.632e-6
0.234, -1.519e-6
0.238, -1.417e-6
0.242, -1.322e-6
0.246, -1.239e-6
0.250, -1.160e-6
0.254, -1.093e-6
0.258, -1.030e-6
0.262, -9.793e-7
0.266, -9.285e-7
0.270, -8.872e-7
0.274, -8.432e-7
0.278, -8.097e-7
0.282, -7.736e-7
0.286, -7.494e-7
0.290, -7.256e-7
0.294, -7.056e-7
0.298, -6.827e-7
0.302, -6.641e-7
0.306, -6.480e-7
0.310, -6.368e-7
0.314, -6.281e-7
0.318, -6.220e-7
0.322, -6.185e-7
0.326, -6.149e-7
0.330, -6.221e-7
0.334, -6.186e-7
0.338, -6.141e-7
0.342, -6.094e-7
0.346, -6.035e-7
0.350, -5.962e-7

File: Bare Fe3+_SPGE7.bin.csv
June 8, 2022   13:41:29
Differential Pulse Voltammetry
File: e:\bare electrode\bare fe3+_spge7.bin.csv
Data Source:  Experiment
Instrument Model:  CHI650E
Data Proc:  Smoothing
Header:
Note:

Init E (V) = -0.15
Final E (V) = 0.35
Incr E (V) = 0.004
Amplitude (V) = 0.05
Pulse Width (sec) = 0.05
Sample Width (sec) = 0.0167
Pulse Period (sec) = 0.5
Quiet Time (sec) = 10
Sensitivity (A/V) = 0.001

Ep = 0.094V
ip = -8.121e-6A
Ap = -1.549e-6VA

Potential/V, Current/A

-0.146, -1.853e-6
-0.142, -1.802e-6
-0.138, -1.762e-6
-0.134, -1.732e-6
-0.130, -1.711e-6
-0.126, -1.700e-6
-0.122, -1.699e-6
-0.118, -1.706e-6
-0.114, -1.711e-6
-0.110, -1.712e-6
-0.106, -1.719e-6
-0.102, -1.727e-6
-0.098, -1.745e-6
-0.094, -1.778e-6
-0.090, -1.812e-6
-0.086, -1.843e-6
-0.082, -1.878e-6
-0.078, -1.919e-6
-0.074, -1.963e-6
-0.070, -2.015e-6
-0.066, -2.075e-6
-0.062, -2.138e-6
-0.058, -2.209e-6
-0.054, -2.302e-6
-0.050, -2.406e-6
-0.046, -2.515e-6
-0.042, -2.633e-6
-0.038, -2.752e-6
-0.034, -2.880e-6
-0.030, -3.030e-6
-0.026, -3.198e-6
-0.022, -3.383e-6
-0.018, -3.580e-6
-0.014, -3.786e-6
-0.010, -4.008e-6
-0.006, -4.236e-6
-0.002, -4.462e-6
0.002, -4.680e-6
0.006, -4.889e-6
0.010, -5.087e-6
0.014, -5.288e-6
0.018, -5.484e-6
0.022, -5.681e-6
0.026, -5.887e-6
0.030, -6.100e-6
0.034, -6.323e-6
0.038, -6.577e-6
0.042, -6.858e-6
0.046, -7.159e-6
0.050, -7.475e-6
0.054, -7.785e-6
0.058, -8.070e-6
0.062, -8.341e-6
0.066, -8.596e-6
0.070, -8.821e-6
0.074, -9.031e-6
0.078, -9.220e-6
0.082, -9.377e-6
0.086, -9.496e-6
0.090, -9.591e-6
0.094, -9.621e-6
0.098, -9.596e-6
0.102, -9.550e-6
0.106, -9.503e-6
0.110, -9.462e-6
0.114, -9.424e-6
0.118, -9.347e-6
0.122, -9.218e-6
0.126, -9.051e-6
0.130, -8.863e-6
0.134, -8.658e-6
0.138, -8.441e-6
0.142, -8.221e-6
0.146, -7.997e-6
0.150, -7.762e-6
0.154, -7.536e-6
0.158, -7.312e-6
0.162, -7.096e-6
0.166, -6.880e-6
0.170, -6.673e-6
0.174, -6.469e-6
0.178, -6.279e-6
0.182, -6.094e-6
0.186, -5.925e-6
0.190, -5.753e-6
0.194, -5.588e-6
0.198, -5.426e-6
0.202, -5.270e-6
0.206, -5.111e-6
0.210, -4.965e-6
0.214, -4.823e-6
0.218, -4.687e-6
0.222, -4.557e-6
0.226, -4.425e-6
0.230, -4.287e-6
0.234, -4.151e-6
0.238, -4.016e-6
0.242, -3.878e-6
0.246, -3.740e-6
0.250, -3.595e-6
0.254, -3.454e-6
0.258, -3.315e-6
0.262, -3.174e-6
0.266, -3.029e-6
0.270, -2.882e-6
0.274, -2.745e-6
0.278, -2.610e-6
0.282, -2.488e-6
0.286, -2.367e-6
0.290, -2.248e-6
0.294, -2.123e-6
0.298, -2.011e-6
0.302, -1.895e-6
0.306, -1.795e-6
0.310, -1.703e-6
0.314, -1.619e-6
0.318, -1.540e-6
0.322, -1.471e-6
0.326, -1.406e-6
0.330, -1.349e-6
0.334, -1.301e-6
0.338, -1.262e-6
0.342, -1.223e-6
0.346, -1.188e-6
0.350, -1.157e-6