Folder: lucian/Experiments/Lab Data/8.8.22/DPV/csv/Bare Electrode (part 3)

File: Bare Fe3+_SPGE17.bin.csv
June 8, 2022   14:57:28
Differential Pulse Voltammetry
File: e:\bare electrode\bare fe3+_spge17.bin.csv
Data Source:  Experiment
Instrument Model:  CHI650E
Data Proc:  Smoothing
Header:
Note:

Init E (V) = -0.15
Final E (V) = 0.35
Incr E (V) = 0.004
Amplitude (V) = 0.05
Pulse Width (sec) = 0.05
Sample Width (sec) = 0.0167
Pulse Period (sec) = 0.5
Quiet Time (sec) = 10
Sensitivity (A/V) = 0.001

Ep = 0.078V
ip = -3.054e-6A
Ap = -6.505e-7VA

Potential/V, Current/A

-0.146, -2.661e-6
-0.142, -2.612e-6
-0.138, -2.570e-6
-0.134, -2.537e-6
-0.130, -2.514e-6
-0.126, -2.502e-6
-0.122, -2.486e-6
-0.118, -2.471e-6
-0.114, -2.458e-6
-0.110, -2.441e-6
-0.106, -2.426e-6
-0.102, -2.416e-6
-0.098, -2.408e-6
-0.094, -2.408e-6
-0.090, -2.417e-6
-0.086, -2.419e-6
-0.082, -2.428e-6
-0.078, -2.433e-6
-0.074, -2.445e-6
-0.070, -2.460e-6
-0.066, -2.478e-6
-0.062, -2.494e-6
-0.058, -2.520e-6
-0.054, -2.556e-6
-0.050, -2.606e-6
-0.046, -2.668e-6
-0.042, -2.732e-6
-0.038, -2.805e-6
-0.034, -2.884e-6
-0.030, -2.961e-6
-0.026, -3.041e-6
-0.022, -3.124e-6
-0.018, -3.207e-6
-0.014, -3.294e-6
-0.010, -3.391e-6
-0.006, -3.483e-6
-0.002, -3.578e-6
0.002, -3.674e-6
0.006, -3.775e-6
0.010, -3.881e-6
0.014, -3.997e-6
0.018, -4.103e-6
0.022, -4.202e-6
0.026, -4.294e-6
0.030, -4.381e-6
0.034, -4.463e-6
0.038, -4.537e-6
0.042, -4.602e-6
0.046, -4.659e-6
0.050, -4.709e-6
0.054, -4.750e-6
0.058, -4.782e-6
0.062, -4.803e-6
0.066, -4.819e-6
0.070, -4.829e-6
0.074, -4.838e-6
0.078, -4.839e-6
0.082, -4.832e-6
0.086, -4.817e-6
0.090, -4.796e-6
0.094, -4.773e-6
0.098, -4.750e-6
0.102, -4.723e-6
0.106, -4.698e-6
0.110, -4.673e-6
0.114, -4.653e-6
0.118, -4.620e-6
0.122, -4.585e-6
0.126, -4.549e-6
0.130, -4.513e-6
0.134, -4.478e-6
0.138, -4.442e-6
0.142, -4.391e-6
0.146, -4.356e-6
0.150, -4.309e-6
0.154, -4.255e-6
0.158, -4.192e-6
0.162, -4.111e-6
0.166, -4.025e-6
0.170, -3.943e-6
0.174, -3.844e-6
0.178, -3.742e-6
0.182, -3.638e-6
0.186, -3.529e-6
0.190, -3.422e-6
0.194, -3.306e-6
0.198, -3.192e-6
0.202, -3.081e-6
0.206, -2.963e-6
0.210, -2.845e-6
0.214, -2.717e-6
0.218, -2.587e-6
0.222, -2.465e-6
0.226, -2.351e-6
0.230, -2.240e-6
0.234, -2.140e-6
0.238, -2.033e-6
0.242, -1.932e-6
0.246, -1.836e-6
0.250, -1.742e-6
0.254, -1.659e-6
0.258, -1.576e-6
0.262, -1.493e-6
0.266, -1.421e-6
0.270, -1.350e-6
0.274, -1.286e-6
0.278, -1.228e-6
0.282, -1.174e-6
0.286, -1.126e-6
0.290, -1.086e-6
0.294, -1.044e-6
0.298, -1.014e-6
0.302, -9.823e-7
0.306, -9.523e-7
0.310, -9.272e-7
0.314, -9.039e-7
0.318, -8.832e-7
0.322, -8.698e-7
0.326, -8.522e-7
0.330, -8.385e-7
0.334, -8.279e-7
0.338, -8.163e-7
0.342, -8.071e-7
0.346, -7.992e-7
0.350, -7.926e-7

File: Bare Fe3+_SPGE18.bin.csv
June 8, 2022   14:46:10
Differential Pulse Voltammetry
File: e:\bare electrode\bare fe3+_spge18.bin.csv
Data Source:  Experiment
Instrument Model:  CHI650E
Data Proc:  Smoothing
Header:
Note:

Init E (V) = -0.15
Final E (V) = 0.35
Incr E (V) = 0.004
Amplitude (V) = 0.05
Pulse Width (sec) = 0.05
Sample Width (sec) = 0.0167
Pulse Period (sec) = 0.5
Quiet Time (sec) = 10
Sensitivity (A/V) = 0.001

Ep = 0.078V
ip = -3.624e-6A
Ap = -5.984e-7VA

Potential/V, Current/A

-0.146, -2.015e-6
-0.142, -1.986e-6
-0.138, -1.961e-6
-0.134, -1.940e-6
-0.130, -1.923e-6
-0.126, -1.910e-6
-0.122, -1.903e-6
-0.118, -1.897e-6
-0.114, -1.883e-6
-0.110, -1.874e-6
-0.106, -1.864e-6
-0.102, -1.857e-6
-0.098, -1.857e-6
-0.094, -1.859e-6
-0.090, -1.860e-6
-0.086, -1.860e-6
-0.082, -1.866e-6
-0.078, -1.872e-6
-0.074, -1.886e-6
-0.070, -1.905e-6
-0.066, -1.923e-6
-0.062, -1.943e-6
-0.058, -1.970e-6
-0.054, -2.008e-6
-0.050, -2.051e-6
-0.046, -2.099e-6
-0.042, -2.150e-6
-0.038, -2.212e-6
-0.034, -2.286e-6
-0.030, -2.380e-6
-0.026, -2.473e-6
-0.022, -2.574e-6
-0.018, -2.682e-6
-0.014, -2.792e-6
-0.010, -2.911e-6
-0.006, -3.037e-6
-0.002, -3.153e-6
0.002, -3.273e-6
0.006, -3.394e-6
0.010, -3.520e-6
0.014, -3.650e-6
0.018, -3.790e-6
0.022, -3.924e-6
0.026, -4.061e-6
0.030, -4.189e-6
0.034, -4.310e-6
0.038, -4.419e-6
0.042, -4.522e-6
0.046, -4.612e-6
0.050, -4.700e-6
0.054, -4.775e-6
0.058, -4.845e-6
0.062, -4.908e-6
0.066, -4.959e-6
0.070, -4.986e-6
0.074, -5.009e-6
0.078, -5.017e-6
0.082, -5.013e-6
0.086, -5.011e-6
0.090, -5.000e-6
0.094, -4.967e-6
0.098, -4.917e-6
0.102, -4.851e-6
0.106, -4.765e-6
0.110, -4.676e-6
0.114, -4.585e-6
0.118, -4.487e-6
0.122, -4.375e-6
0.126, -4.263e-6
0.130, -4.145e-6
0.134, -4.024e-6
0.138, -3.899e-6
0.142, -3.773e-6
0.146, -3.635e-6
0.150, -3.501e-6
0.154, -3.363e-6
0.158, -3.230e-6
0.162, -3.089e-6
0.166, -2.955e-6
0.170, -2.812e-6
0.174, -2.678e-6
0.178, -2.552e-6
0.182, -2.432e-6
0.186, -2.306e-6
0.190, -2.196e-6
0.194, -2.079e-6
0.198, -1.973e-6
0.202, -1.870e-6
0.206, -1.772e-6
0.210, -1.678e-6
0.214, -1.601e-6
0.218, -1.518e-6
0.222, -1.445e-6
0.226, -1.368e-6
0.230, -1.302e-6
0.234, -1.239e-6
0.238, -1.191e-6
0.242, -1.141e-6
0.246, -1.101e-6
0.250, -1.056e-6
0.254, -1.024e-6
0.258, -9.845e-7
0.262, -9.538e-7
0.266, -9.247e-7
0.270, -9.035e-7
0.274, -8.786e-7
0.278, -8.608e-7
0.282, -8.414e-7
0.286, -8.264e-7
0.290, -8.103e-7
0.294, -7.932e-7
0.298, -7.808e-7
0.302, -7.681e-7
0.306, -7.635e-7
0.310, -7.510e-7
0.314, -7.491e-7
0.318, -7.350e-7
0.322, -7.321e-7
0.326, -7.246e-7
0.330, -7.230e-7
0.334, -7.154e-7
0.338, -7.209e-7
0.342, -7.212e-7
0.346, -7.201e-7
0.350, -7.177e-7

File: Bare Fe3+_SPGE19.bin.csv
June 8, 2022   15:15:24
Differential Pulse Voltammetry
File: e:\bare electrode\bare fe3+_spge19.bin.csv
Data Source:  Experiment
Instrument Model:  CHI650E
Data Proc:  Smoothing
Header:
Note:

Init E (V) = -0.15
Final E (V) = 0.35
Incr E (V) = 0.004
Amplitude (V) = 0.05
Pulse Width (sec) = 0.05
Sample Width (sec) = 0.0167
Pulse Period (sec) = 0.5
Quiet Time (sec) = 10
Sensitivity (A/V) = 0.001

Ep = 0.062V
ip = -6.479e-6A
Ap = -1.079e-6VA

Potential/V, Current/A

-0.146, -2.909e-6
-0.142, -2.873e-6
-0.138, -2.845e-6
-0.134, -2.826e-6
-0.130, -2.810e-6
-0.126, -2.813e-6
-0.122, -2.822e-6
-0.118, -2.834e-6
-0.114, -2.856e-6
-0.110, -2.874e-6
-0.106, -2.889e-6
-0.102, -2.909e-6
-0.098, -2.926e-6
-0.094, -2.940e-6
-0.090, -2.975e-6
-0.086, -3.011e-6
-0.082, -3.057e-6
-0.078, -3.109e-6
-0.074, -3.163e-6
-0.070, -3.218e-6
-0.066, -3.289e-6
-0.062, -3.367e-6
-0.058, -3.459e-6
-0.054, -3.564e-6
-0.050, -3.682e-6
-0.046, -3.800e-6
-0.042, -3.931e-6
-0.038, -4.064e-6
-0.034, -4.207e-6
-0.030, -4.365e-6
-0.026, -4.534e-6
-0.022, -4.713e-6
-0.018, -4.904e-6
-0.014, -5.115e-6
-0.010, -5.334e-6
-0.006, -5.559e-6
-0.002, -5.780e-6
0.002, -6.020e-6
0.006, -6.260e-6
0.010, -6.522e-6
0.014, -6.767e-6
0.018, -6.993e-6
0.022, -7.202e-6
0.026, -7.403e-6
0.030, -7.578e-6
0.034, -7.748e-6
0.038, -7.894e-6
0.042, -8.033e-6
0.046, -8.164e-6
0.050, -8.284e-6
0.054, -8.371e-6
0.058, -8.420e-6
0.062, -8.429e-6
0.066, -8.409e-6
0.070, -8.368e-6
0.074, -8.314e-6
0.078, -8.235e-6
0.082, -8.132e-6
0.086, -8.007e-6
0.090, -7.857e-6
0.094, -7.693e-6
0.098, -7.515e-6
0.102, -7.328e-6
0.106, -7.125e-6
0.110, -6.913e-6
0.114, -6.692e-6
0.118, -6.465e-6
0.122, -6.234e-6
0.126, -6.009e-6
0.130, -5.779e-6
0.134, -5.554e-6
0.138, -5.337e-6
0.142, -5.125e-6
0.146, -4.917e-6
0.150, -4.710e-6
0.154, -4.500e-6
0.158, -4.301e-6
0.162, -4.103e-6
0.166, -3.912e-6
0.170, -3.728e-6
0.174, -3.541e-6
0.178, -3.359e-6
0.182, -3.187e-6
0.186, -3.027e-6
0.190, -2.884e-6
0.194, -2.742e-6
0.198, -2.604e-6
0.202, -2.467e-6
0.206, -2.327e-6
0.210, -2.199e-6
0.214, -2.079e-6
0.218, -1.967e-6
0.222, -1.865e-6
0.226, -1.773e-6
0.230, -1.680e-6
0.234, -1.591e-6
0.238, -1.511e-6
0.242, -1.438e-6
0.246, -1.370e-6
0.250, -1.311e-6
0.254, -1.251e-6
0.258, -1.191e-6
0.262, -1.138e-6
0.266, -1.095e-6
0.270, -1.055e-6
0.274, -1.024e-6
0.278, -9.909e-7
0.282, -9.567e-7
0.286, -9.242e-7
0.290, -8.986e-7
0.294, -8.723e-7
0.298, -8.539e-7
0.302, -8.418e-7
0.306, -8.310e-7
0.310, -8.194e-7
0.314, -8.018e-7
0.318, -7.827e-7
0.322, -7.691e-7
0.326, -7.629e-7
0.330, -7.528e-7
0.334, -7.497e-7
0.338, -7.426e-7
0.342, -7.376e-7
0.346, -7.337e-7
0.350, -7.308e-7

File: Bare Fe3+_SPGE20.bin.csv
June 8, 2022   15:21:52
Differential Pulse Voltammetry
File: e:\bare electrode\bare fe3+_spge20.bin.csv
Data Source:  Experiment
Instrument Model:  CHI650E
Data Proc:  Smoothing
Header:
Note:

Init E (V) = -0.15
Final E (V) = 0.35
Incr E (V) = 0.004
Amplitude (V) = 0.05
Pulse Width (sec) = 0.05
Sample Width (sec) = 0.0167
Pulse Period (sec) = 0.5
Quiet Time (sec) = 10
Sensitivity (A/V) = 0.001

Ep = 0.078V
ip = -5.456e-6A
Ap = -9.690e-7VA

Potential/V, Current/A

-0.146, -2.516e-6
-0.142, -2.458e-6
-0.138, -2.409e-6
-0.134, -2.367e-6
-0.130, -2.335e-6
-0.126, -2.314e-6
-0.122, -2.296e-6
-0.118, -2.283e-6
-0.114, -2.269e-6
-0.110, -2.268e-6
-0.106, -2.263e-6
-0.102, -2.259e-6
-0.098, -2.253e-6
-0.094, -2.249e-6
-0.090, -2.242e-6
-0.086, -2.254e-6
-0.082, -2.266e-6
-0.078, -2.282e-6
-0.074, -2.300e-6
-0.070, -2.326e-6
-0.066, -2.353e-6
-0.062, -2.393e-6
-0.058, -2.429e-6
-0.054, -2.476e-6
-0.050, -2.524e-6
-0.046, -2.582e-6
-0.042, -2.647e-6
-0.038, -2.727e-6
-0.034, -2.814e-6
-0.030, -2.926e-6
-0.026, -3.044e-6
-0.022, -3.176e-6
-0.018, -3.318e-6
-0.014, -3.472e-6
-0.010, -3.637e-6
-0.006, -3.814e-6
-0.002, -3.991e-6
0.002, -4.172e-6
0.006, -4.362e-6
0.010, -4.560e-6
0.014, -4.766e-6
0.018, -4.982e-6
0.022, -5.203e-6
0.026, -5.426e-6
0.030, -5.651e-6
0.034, -5.865e-6
0.038, -6.065e-6
0.042, -6.243e-6
0.046, -6.398e-6
0.050, -6.538e-6
0.054, -6.667e-6
0.058, -6.776e-6
0.062, -6.867e-6
0.066, -6.940e-6
0.070, -6.990e-6
0.074, -7.022e-6
0.078, -7.033e-6
0.082, -7.023e-6
0.086, -6.987e-6
0.090, -6.932e-6
0.094, -6.854e-6
0.098, -6.753e-6
0.102, -6.634e-6
0.106, -6.509e-6
0.110, -6.380e-6
0.114, -6.256e-6
0.118, -6.127e-6
0.122, -5.996e-6
0.126, -5.859e-6
0.130, -5.724e-6
0.134, -5.587e-6
0.138, -5.460e-6
0.142, -5.333e-6
0.146, -5.207e-6
0.150, -5.078e-6
0.154, -4.950e-6
0.158, -4.818e-6
0.162, -4.683e-6
0.166, -4.551e-6
0.170, -4.413e-6
0.174, -4.268e-6
0.178, -4.118e-6
0.182, -3.970e-6
0.186, -3.816e-6
0.190, -3.666e-6
0.194, -3.512e-6
0.198, -3.355e-6
0.202, -3.193e-6
0.206, -3.038e-6
0.210, -2.878e-6
0.214, -2.727e-6
0.218, -2.582e-6
0.222, -2.440e-6
0.226, -2.299e-6
0.230, -2.163e-6
0.234, -2.030e-6
0.238, -1.910e-6
0.242, -1.796e-6
0.246, -1.687e-6
0.250, -1.582e-6
0.254, -1.479e-6
0.258, -1.387e-6
0.262, -1.299e-6
0.266, -1.218e-6
0.270, -1.144e-6
0.274, -1.083e-6
0.278, -1.016e-6
0.282, -9.657e-7
0.286, -9.094e-7
0.290, -8.640e-7
0.294, -8.238e-7
0.298, -7.929e-7
0.302, -7.514e-7
0.306, -7.227e-7
0.310, -6.886e-7
0.314, -6.637e-7
0.318, -6.378e-7
0.322, -6.205e-7
0.326, -5.971e-7
0.330, -5.876e-7
0.334, -5.755e-7
0.338, -5.692e-7
0.342, -5.629e-7
0.346, -5.577e-7
0.350, -5.535e-7

File: Bare Fe3+_SPGE21.bin.csv
June 8, 2022   14:32:13
Differential Pulse Voltammetry
File: e:\bare electrode\bare fe3+_spge21.bin.csv
Data Source:  Experiment
Instrument Model:  CHI650E
Data Proc:  Smoothing
Header:
Note:

Init E (V) = -0.15
Final E (V) = 0.35
Incr E (V) = 0.004
Amplitude (V) = 0.05
Pulse Width (sec) = 0.05
Sample Width (sec) = 0.0167
Pulse Period (sec) = 0.5
Quiet Time (sec) = 10
Sensitivity (A/V) = 0.001

Ep = 0.058V
ip = -2.672e-6A
Ap = -5.479e-7VA

Potential/V, Current/A

-0.146, -1.273e-6
-0.142, -1.264e-6
-0.138, -1.254e-6
-0.134, -1.243e-6
-0.130, -1.233e-6
-0.126, -1.219e-6
-0.122, -1.208e-6
-0.118, -1.192e-6
-0.114, -1.191e-6
-0.110, -1.187e-6
-0.106, -1.181e-6
-0.102, -1.181e-6
-0.098, -1.183e-6
-0.094, -1.185e-6
-0.090, -1.198e-6
-0.086, -1.215e-6
-0.082, -1.235e-6
-0.078, -1.269e-6
-0.074, -1.306e-6
-0.070, -1.348e-6
-0.066, -1.391e-6
-0.062, -1.434e-6
-0.058, -1.484e-6
-0.054, -1.539e-6
-0.050, -1.601e-6
-0.046, -1.672e-6
-0.042, -1.752e-6
-0.038, -1.835e-6
-0.034, -1.934e-6
-0.030, -2.032e-6
-0.026, -2.135e-6
-0.022, -2.238e-6
-0.018, -2.346e-6
-0.014, -2.447e-6
-0.010, -2.563e-6
-0.006, -2.674e-6
-0.002, -2.787e-6
0.002, -2.889e-6
0.006, -2.998e-6
0.010, -3.100e-6
0.014, -3.204e-6
0.018, -3.302e-6
0.022, -3.395e-6
0.026, -3.476e-6
0.030, -3.551e-6
0.034, -3.603e-6
0.038, -3.648e-6
0.042, -3.678e-6
0.046, -3.711e-6
0.050, -3.741e-6
0.054, -3.759e-6
0.058, -3.761e-6
0.062, -3.757e-6
0.066, -3.746e-6
0.070, -3.736e-6
0.074, -3.724e-6
0.078, -3.714e-6
0.082, -3.692e-6
0.086, -3.659e-6
0.090, -3.614e-6
0.094, -3.568e-6
0.098, -3.522e-6
0.102, -3.482e-6
0.106, -3.436e-6
0.110, -3.390e-6
0.114, -3.329e-6
0.118, -3.295e-6
0.122, -3.250e-6
0.126, -3.202e-6
0.130, -3.146e-6
0.134, -3.087e-6
0.138, -3.023e-6
0.142, -2.980e-6
0.146, -2.931e-6
0.150, -2.882e-6
0.154, -2.836e-6
0.158, -2.791e-6
0.162, -2.753e-6
0.166, -2.709e-6
0.170, -2.664e-6
0.174, -2.614e-6
0.178, -2.564e-6
0.182, -2.512e-6
0.186, -2.460e-6
0.190, -2.408e-6
0.194, -2.351e-6
0.198, -2.297e-6
0.202, -2.238e-6
0.206, -2.180e-6
0.210, -2.121e-6
0.214, -2.063e-6
0.218, -1.996e-6
0.222, -1.936e-6
0.226, -1.869e-6
0.230, -1.806e-6
0.234, -1.743e-6
0.238, -1.686e-6
0.242, -1.623e-6
0.246, -1.565e-6
0.250, -1.506e-6
0.254, -1.448e-6
0.258, -1.395e-6
0.262, -1.350e-6
0.266, -1.303e-6
0.270, -1.260e-6
0.274, -1.210e-6
0.278, -1.166e-6
0.282, -1.125e-6
0.286, -1.089e-6
0.290, -1.054e-6
0.294, -1.023e-6
0.298, -9.825e-7
0.302, -9.488e-7
0.306, -9.226e-7
0.310, -9.016e-7
0.314, -8.804e-7
0.318, -8.608e-7
0.322, -8.335e-7
0.326, -8.067e-7
0.330, -7.837e-7
0.334, -7.670e-7
0.338, -7.549e-7
0.342, -7.417e-7
0.346, -7.304e-7
0.350, -7.208e-7

File: Bare Fe3+_SPGE22.bin.csv
June 8, 2022   14:39:48
Differential Pulse Voltammetry
File: e:\bare electrode\bare fe3+_spge22.bin.csv
Data Source:  Experiment
Instrument Model:  CHI650E
Data Proc:  Smoothing
Header:
Note:

Init E (V) = -0.15
Final E (V) = 0.35
Incr E (V) = 0.004
Amplitude (V) = 0.05
Pulse Width (sec) = 0.05
Sample Width (sec) = 0.0167
Pulse Period (sec) = 0.5
Quiet Time (sec) = 10
Sensitivity (A/V) = 0.001

Ep = 0.066V
ip = -2.501e-6A
Ap = -4.474e-7VA

Potential/V, Current/A

-0.146, -2.102e-6
-0.142, -2.065e-6
-0.138, -2.031e-6
-0.134, -2.001e-6
-0.130, -1.975e-6
-0.126, -1.947e-6
-0.122, -1.918e-6
-0.118, -1.895e-6
-0.114, -1.871e-6
-0.110, -1.848e-6
-0.106, -1.830e-6
-0.102, -1.809e-6
-0.098, -1.792e-6
-0.094, -1.786e-6
-0.090, -1.782e-6
-0.086, -1.777e-6
-0.082, -1.775e-6
-0.078, -1.771e-6
-0.074, -1.771e-6
-0.070, -1.778e-6
-0.066, -1.793e-6
-0.062, -1.810e-6
-0.058, -1.840e-6
-0.054, -1.875e-6
-0.050, -1.922e-6
-0.046, -1.980e-6
-0.042, -2.046e-6
-0.038, -2.109e-6
-0.034, -2.183e-6
-0.030, -2.261e-6
-0.026, -2.345e-6
-0.022, -2.436e-6
-0.018, -2.525e-6
-0.014, -2.616e-6
-0.010, -2.715e-6
-0.006, -2.814e-6
-0.002, -2.914e-6
0.002, -3.011e-6
0.006, -3.108e-6
0.010, -3.197e-6
0.014, -3.289e-6
0.018, -3.376e-6
0.022, -3.464e-6
0.026, -3.547e-6
0.030, -3.622e-6
0.034, -3.685e-6
0.038, -3.743e-6
0.042, -3.793e-6
0.046, -3.835e-6
0.050, -3.869e-6
0.054, -3.897e-6
0.058, -3.919e-6
0.062, -3.924e-6
0.066, -3.924e-6
0.070, -3.916e-6
0.074, -3.902e-6
0.078, -3.889e-6
0.082, -3.868e-6
0.086, -3.836e-6
0.090, -3.798e-6
0.094, -3.750e-6
0.098, -3.696e-6
0.102, -3.638e-6
0.106, -3.574e-6
0.110, -3.522e-6
0.114, -3.465e-6
0.118, -3.407e-6
0.122, -3.345e-6
0.126, -3.287e-6
0.130, -3.216e-6
0.134, -3.159e-6
0.138, -3.089e-6
0.142, -3.020e-6
0.146, -2.946e-6
0.150, -2.878e-6
0.154, -2.797e-6
0.158, -2.731e-6
0.162, -2.652e-6
0.166, -2.569e-6
0.170, -2.485e-6
0.174, -2.404e-6
0.178, -2.316e-6
0.182, -2.242e-6
0.186, -2.160e-6
0.190, -2.083e-6
0.194, -2.002e-6
0.198, -1.927e-6
0.202, -1.845e-6
0.206, -1.767e-6
0.210, -1.692e-6
0.214, -1.627e-6
0.218, -1.559e-6
0.222, -1.502e-6
0.226, -1.445e-6
0.230, -1.393e-6
0.234, -1.339e-6
0.238, -1.290e-6
0.242, -1.235e-6
0.246, -1.188e-6
0.250, -1.146e-6
0.254, -1.113e-6
0.258, -1.084e-6
0.262, -1.062e-6
0.266, -1.029e-6
0.270, -1.002e-6
0.274, -9.709e-7
0.278, -9.457e-7
0.282, -9.235e-7
0.286, -9.076e-7
0.290, -8.845e-7
0.294, -8.727e-7
0.298, -8.576e-7
0.302, -8.520e-7
0.306, -8.433e-7
0.310, -8.344e-7
0.314, -8.168e-7
0.318, -8.058e-7
0.322, -7.951e-7
0.326, -7.942e-7
0.330, -7.883e-7
0.334, -7.878e-7
0.338, -7.786e-7
0.342, -7.765e-7
0.346, -7.770e-7
0.350, -7.801e-7

File: Bare Fe3+_SPGE23.bin.csv
June 8, 2022   13:47:28
Differential Pulse Voltammetry
File: e:\bare electrode\bare fe3+_spge23.bin.csv
Data Source:  Experiment
Instrument Model:  CHI650E
Data Proc:  Smoothing
Header:
Note:

Init E (V) = -0.15
Final E (V) = 0.35
Incr E (V) = 0.004
Amplitude (V) = 0.05
Pulse Width (sec) = 0.05
Sample Width (sec) = 0.0167
Pulse Period (sec) = 0.5
Quiet Time (sec) = 10
Sensitivity (A/V) = 0.001

Ep = 0.074V
ip = -6.924e-6A
Ap = -1.233e-6VA

Potential/V, Current/A

-0.146, -2.665e-6
-0.142, -2.613e-6
-0.138, -2.572e-6
-0.134, -2.543e-6
-0.130, -2.528e-6
-0.126, -2.521e-6
-0.122, -2.520e-6
-0.118, -2.519e-6
-0.114, -2.514e-6
-0.110, -2.507e-6
-0.106, -2.500e-6
-0.102, -2.498e-6
-0.098, -2.499e-6
-0.094, -2.503e-6
-0.090, -2.515e-6
-0.086, -2.529e-6
-0.082, -2.554e-6
-0.078, -2.588e-6
-0.074, -2.626e-6
-0.070, -2.665e-6
-0.066, -2.717e-6
-0.062, -2.769e-6
-0.058, -2.831e-6
-0.054, -2.906e-6
-0.050, -2.999e-6
-0.046, -3.103e-6
-0.042, -3.228e-6
-0.038, -3.362e-6
-0.034, -3.507e-6
-0.030, -3.668e-6
-0.026, -3.841e-6
-0.022, -4.022e-6
-0.018, -4.213e-6
-0.014, -4.420e-6
-0.010, -4.641e-6
-0.006, -4.880e-6
-0.002, -5.129e-6
0.002, -5.390e-6
0.006, -5.654e-6
0.010, -5.925e-6
0.014, -6.203e-6
0.018, -6.487e-6
0.022, -6.762e-6
0.026, -7.032e-6
0.030, -7.289e-6
0.034, -7.519e-6
0.038, -7.729e-6
0.042, -7.927e-6
0.046, -8.100e-6
0.050, -8.261e-6
0.054, -8.413e-6
0.058, -8.537e-6
0.062, -8.633e-6
0.066, -8.695e-6
0.070, -8.722e-6
0.074, -8.722e-6
0.078, -8.712e-6
0.082, -8.684e-6
0.086, -8.633e-6
0.090, -8.548e-6
0.094, -8.435e-6
0.098, -8.299e-6
0.102, -8.146e-6
0.106, -7.979e-6
0.110, -7.806e-6
0.114, -7.627e-6
0.118, -7.442e-6
0.122, -7.261e-6
0.126, -7.073e-6
0.130, -6.885e-6
0.134, -6.697e-6
0.138, -6.504e-6
0.142, -6.312e-6
0.146, -6.128e-6
0.150, -5.948e-6
0.154, -5.776e-6
0.158, -5.607e-6
0.162, -5.439e-6
0.166, -5.274e-6
0.170, -5.108e-6
0.174, -4.938e-6
0.178, -4.771e-6
0.182, -4.605e-6
0.186, -4.437e-6
0.190, -4.272e-6
0.194, -4.103e-6
0.198, -3.928e-6
0.202, -3.749e-6
0.206, -3.567e-6
0.210, -3.386e-6
0.214, -3.211e-6
0.218, -3.040e-6
0.222, -2.877e-6
0.226, -2.719e-6
0.230, -2.566e-6
0.234, -2.419e-6
0.238, -2.274e-6
0.242, -2.130e-6
0.246, -1.995e-6
0.250, -1.873e-6
0.254, -1.759e-6
0.258, -1.654e-6
0.262, -1.553e-6
0.266, -1.457e-6
0.270, -1.371e-6
0.274, -1.297e-6
0.278, -1.227e-6
0.282, -1.172e-6
0.286, -1.116e-6
0.290, -1.063e-6
0.294, -1.017e-6
0.298, -9.763e-7
0.302, -9.340e-7
0.306, -9.021e-7
0.310, -8.670e-7
0.314, -8.460e-7
0.318, -8.281e-7
0.322, -8.129e-7
0.326, -7.968e-7
0.330, -7.849e-7
0.334, -7.679e-7
0.338, -7.591e-7
0.342, -7.508e-7
0.346, -7.437e-7
0.350, -7.377e-7

File: Bare Fe3+_SPGE24.bin.csv
June 8, 2022   14:37:37
Differential Pulse Voltammetry
File: e:\bare electrode\bare fe3+_spge24.bin.csv
Data Source:  Experiment
Instrument Model:  CHI650E
Data Proc:  Smoothing
Header:
Note:

Init E (V) = -0.15
Final E (V) = 0.35
Incr E (V) = 0.004
Amplitude (V) = 0.05
Pulse Width (sec) = 0.05
Sample Width (sec) = 0.0167
Pulse Period (sec) = 0.5
Quiet Time (sec) = 10
Sensitivity (A/V) = 0.001

Ep = 0.070V
ip = -5.149e-6A
Ap = -9.870e-7VA

Potential/V, Current/A

-0.146, -2.845e-6
-0.142, -2.800e-6
-0.138, -2.761e-6
-0.134, -2.730e-6
-0.130, -2.703e-6
-0.126, -2.691e-6
-0.122, -2.684e-6
-0.118, -2.680e-6
-0.114, -2.679e-6
-0.110, -2.680e-6
-0.106, -2.676e-6
-0.102, -2.678e-6
-0.098, -2.692e-6
-0.094, -2.705e-6
-0.090, -2.728e-6
-0.086, -2.754e-6
-0.082, -2.788e-6
-0.078, -2.821e-6
-0.074, -2.860e-6
-0.070, -2.900e-6
-0.066, -2.945e-6
-0.062, -2.996e-6
-0.058, -3.056e-6
-0.054, -3.126e-6
-0.050, -3.204e-6
-0.046, -3.299e-6
-0.042, -3.403e-6
-0.038, -3.508e-6
-0.034, -3.617e-6
-0.030, -3.745e-6
-0.026, -3.883e-6
-0.022, -4.030e-6
-0.018, -4.178e-6
-0.014, -4.327e-6
-0.010, -4.484e-6
-0.006, -4.661e-6
-0.002, -4.848e-6
0.002, -5.028e-6
0.006, -5.206e-6
0.010, -5.386e-6
0.014, -5.570e-6
0.018, -5.762e-6
0.022, -5.951e-6
0.026, -6.125e-6
0.030, -6.281e-6
0.034, -6.416e-6
0.038, -6.545e-6
0.042, -6.658e-6
0.046, -6.760e-6
0.050, -6.840e-6
0.054, -6.904e-6
0.058, -6.952e-6
0.062, -6.999e-6
0.066, -7.040e-6
0.070, -7.064e-6
0.074, -7.054e-6
0.078, -7.026e-6
0.082, -6.969e-6
0.086, -6.908e-6
0.090, -6.839e-6
0.094, -6.765e-6
0.098, -6.681e-6
0.102, -6.594e-6
0.106, -6.496e-6
0.110, -6.399e-6
0.114, -6.285e-6
0.118, -6.183e-6
0.122, -6.079e-6
0.126, -5.979e-6
0.130, -5.875e-6
0.134, -5.767e-6
0.138, -5.649e-6
0.142, -5.536e-6
0.146, -5.420e-6
0.150, -5.306e-6
0.154, -5.185e-6
0.158, -5.065e-6
0.162, -4.936e-6
0.166, -4.803e-6
0.170, -4.659e-6
0.174, -4.513e-6
0.178, -4.358e-6
0.182, -4.210e-6
0.186, -4.048e-6
0.190, -3.889e-6
0.194, -3.722e-6
0.198, -3.558e-6
0.202, -3.395e-6
0.206, -3.239e-6
0.210, -3.076e-6
0.214, -2.919e-6
0.218, -2.764e-6
0.222, -2.613e-6
0.226, -2.464e-6
0.230, -2.324e-6
0.234, -2.187e-6
0.238, -2.060e-6
0.242, -1.939e-6
0.246, -1.832e-6
0.250, -1.726e-6
0.254, -1.634e-6
0.258, -1.547e-6
0.262, -1.464e-6
0.266, -1.387e-6
0.270, -1.319e-6
0.274, -1.254e-6
0.278, -1.198e-6
0.282, -1.143e-6
0.286, -1.090e-6
0.290, -1.045e-6
0.294, -1.007e-6
0.298, -9.758e-7
0.302, -9.515e-7
0.306, -9.251e-7
0.310, -9.002e-7
0.314, -8.779e-7
0.318, -8.571e-7
0.322, -8.405e-7
0.326, -8.289e-7
0.330, -8.168e-7
0.334, -8.138e-7
0.338, -8.067e-7
0.342, -8.007e-7
0.346, -7.952e-7
0.350, -7.901e-7

File: Bare Fe3+_SPGE25.bin.csv
June 8, 2022   15:01:13
Differential Pulse Voltammetry
File: e:\bare electrode\bare fe3+_spge25.bin.csv
Data Source:  Experiment
Instrument Model:  CHI650E
Data Proc:  Smoothing
Header:
Note:

Init E (V) = -0.15
Final E (V) = 0.35
Incr E (V) = 0.004
Amplitude (V) = 0.05
Pulse Width (sec) = 0.05
Sample Width (sec) = 0.0167
Pulse Period (sec) = 0.5
Quiet Time (sec) = 10
Sensitivity (A/V) = 0.001

Ep = 0.058V
ip = -5.191e-6A
Ap = -1.066e-6VA

Potential/V, Current/A

-0.146, -2.519e-6
-0.142, -2.459e-6
-0.138, -2.409e-6
-0.134, -2.369e-6
-0.130, -2.343e-6
-0.126, -2.326e-6
-0.122, -2.312e-6
-0.118, -2.303e-6
-0.114, -2.296e-6
-0.110, -2.290e-6
-0.106, -2.285e-6
-0.102, -2.282e-6
-0.098, -2.291e-6
-0.094, -2.304e-6
-0.090, -2.330e-6
-0.086, -2.355e-6
-0.082, -2.387e-6
-0.078, -2.421e-6
-0.074, -2.467e-6
-0.070, -2.520e-6
-0.066, -2.587e-6
-0.062, -2.653e-6
-0.058, -2.723e-6
-0.054, -2.818e-6
-0.050, -2.924e-6
-0.046, -3.055e-6
-0.042, -3.196e-6
-0.038, -3.344e-6
-0.034, -3.495e-6
-0.030, -3.657e-6
-0.026, -3.821e-6
-0.022, -3.999e-6
-0.018, -4.180e-6
-0.014, -4.377e-6
-0.010, -4.587e-6
-0.006, -4.793e-6
-0.002, -5.001e-6
0.002, -5.211e-6
0.006, -5.422e-6
0.010, -5.636e-6
0.014, -5.856e-6
0.018, -6.057e-6
0.022, -6.241e-6
0.026, -6.400e-6
0.030, -6.538e-6
0.034, -6.651e-6
0.038, -6.746e-6
0.042, -6.818e-6
0.046, -6.872e-6
0.050, -6.903e-6
0.054, -6.926e-6
0.058, -6.933e-6
0.062, -6.924e-6
0.066, -6.895e-6
0.070, -6.844e-6
0.074, -6.782e-6
0.078, -6.723e-6
0.082, -6.662e-6
0.086, -6.605e-6
0.090, -6.532e-6
0.094, -6.456e-6
0.098, -6.376e-6
0.102, -6.298e-6
0.106, -6.216e-6
0.110, -6.140e-6
0.114, -6.055e-6
0.118, -5.983e-6
0.122, -5.912e-6
0.126, -5.845e-6
0.130, -5.778e-6
0.134, -5.717e-6
0.138, -5.656e-6
0.142, -5.597e-6
0.146, -5.537e-6
0.150, -5.472e-6
0.154, -5.403e-6
0.158, -5.333e-6
0.162, -5.245e-6
0.166, -5.149e-6
0.170, -5.045e-6
0.174, -4.925e-6
0.178, -4.798e-6
0.182, -4.655e-6
0.186, -4.499e-6
0.190, -4.333e-6
0.194, -4.166e-6
0.198, -3.989e-6
0.202, -3.807e-6
0.206, -3.619e-6
0.210, -3.430e-6
0.214, -3.235e-6
0.218, -3.050e-6
0.222, -2.869e-6
0.226, -2.700e-6
0.230, -2.530e-6
0.234, -2.365e-6
0.238, -2.211e-6
0.242, -2.062e-6
0.246, -1.929e-6
0.250, -1.810e-6
0.254, -1.691e-6
0.258, -1.587e-6
0.262, -1.490e-6
0.266, -1.395e-6
0.270, -1.313e-6
0.274, -1.244e-6
0.278, -1.177e-6
0.282, -1.121e-6
0.286, -1.070e-6
0.290, -1.024e-6
0.294, -9.802e-7
0.298, -9.479e-7
0.302, -9.170e-7
0.306, -8.930e-7
0.310, -8.710e-7
0.314, -8.496e-7
0.318, -8.319e-7
0.322, -8.154e-7
0.326, -8.043e-7
0.330, -7.946e-7
0.334, -7.886e-7
0.338, -7.845e-7
0.342, -7.810e-7
0.346, -7.791e-7
0.350, -7.790e-7