Folder: lucian/Experiments/Lab Data/8.8.22/DPV/csv/Modified Electrode (part 2)

File: 1pM_bead_Fe3+_SPGE20.bin.csv
June 8, 2022   17:18:33
Differential Pulse Voltammetry
File: e:\1pm_bead_fe3+_spge20.bin.csv
Data Source:  Experiment
Instrument Model:  CHI650E
Data Proc:  Smoothing
Header:
Note:

Init E (V) = -0.15
Final E (V) = 0.35
Incr E (V) = 0.004
Amplitude (V) = 0.05
Pulse Width (sec) = 0.05
Sample Width (sec) = 0.0167
Pulse Period (sec) = 0.5
Quiet Time (sec) = 10
Sensitivity (A/V) = 0.001

Ep = 0.082V
ip = -2.155e-6A
Ap = -2.847e-7VA

Potential/V, Current/A

-0.146, -3.167e-6
-0.142, -3.112e-6
-0.138, -3.065e-6
-0.134, -3.025e-6
-0.130, -2.993e-6
-0.126, -2.972e-6
-0.122, -2.954e-6
-0.118, -2.936e-6
-0.114, -2.915e-6
-0.110, -2.894e-6
-0.106, -2.871e-6
-0.102, -2.850e-6
-0.098, -2.830e-6
-0.094, -2.812e-6
-0.090, -2.795e-6
-0.086, -2.783e-6
-0.082, -2.774e-6
-0.078, -2.763e-6
-0.074, -2.753e-6
-0.070, -2.739e-6
-0.066, -2.720e-6
-0.062, -2.707e-6
-0.058, -2.696e-6
-0.054, -2.685e-6
-0.050, -2.680e-6
-0.046, -2.681e-6
-0.042, -2.692e-6
-0.038, -2.713e-6
-0.034, -2.735e-6
-0.030, -2.766e-6
-0.026, -2.795e-6
-0.022, -2.829e-6
-0.018, -2.867e-6
-0.014, -2.913e-6
-0.010, -2.958e-6
-0.006, -3.014e-6
-0.002, -3.061e-6
0.002, -3.111e-6
0.006, -3.163e-6
0.010, -3.228e-6
0.014, -3.301e-6
0.018, -3.384e-6
0.022, -3.471e-6
0.026, -3.555e-6
0.030, -3.642e-6
0.034, -3.727e-6
0.038, -3.814e-6
0.042, -3.897e-6
0.046, -3.982e-6
0.050, -4.060e-6
0.054, -4.130e-6
0.058, -4.193e-6
0.062, -4.250e-6
0.066, -4.301e-6
0.070, -4.343e-6
0.074, -4.376e-6
0.078, -4.397e-6
0.082, -4.407e-6
0.086, -4.399e-6
0.090, -4.376e-6
0.094, -4.342e-6
0.098, -4.286e-6
0.102, -4.223e-6
0.106, -4.149e-6
0.110, -4.065e-6
0.114, -3.972e-6
0.118, -3.885e-6
0.122, -3.788e-6
0.126, -3.692e-6
0.130, -3.594e-6
0.134, -3.496e-6
0.138, -3.393e-6
0.142, -3.292e-6
0.146, -3.193e-6
0.150, -3.093e-6
0.154, -2.999e-6
0.158, -2.913e-6
0.162, -2.828e-6
0.166, -2.745e-6
0.170, -2.667e-6
0.174, -2.584e-6
0.178, -2.506e-6
0.182, -2.437e-6
0.186, -2.373e-6
0.190, -2.312e-6
0.194, -2.255e-6
0.198, -2.198e-6
0.202, -2.138e-6
0.206, -2.085e-6
0.210, -2.031e-6
0.214, -1.984e-6
0.218, -1.936e-6
0.222, -1.895e-6
0.226, -1.852e-6
0.230, -1.817e-6
0.234, -1.781e-6
0.238, -1.753e-6
0.242, -1.720e-6
0.246, -1.697e-6
0.250, -1.669e-6
0.254, -1.647e-6
0.258, -1.626e-6
0.262, -1.609e-6
0.266, -1.588e-6
0.270, -1.576e-6
0.274, -1.562e-6
0.278, -1.555e-6
0.282, -1.545e-6
0.286, -1.537e-6
0.290, -1.531e-6
0.294, -1.524e-6
0.298, -1.517e-6
0.302, -1.514e-6
0.306, -1.507e-6
0.310, -1.500e-6
0.314, -1.502e-6
0.318, -1.501e-6
0.322, -1.500e-6
0.326, -1.506e-6
0.330, -1.511e-6
0.334, -1.512e-6
0.338, -1.512e-6
0.342, -1.513e-6
0.346, -1.514e-6
0.350, -1.514e-6

File: 10pM_bead_Fe3+_SPGE11.bin.csv
June 8, 2022   16:40:04
Differential Pulse Voltammetry
File: e:\10pm_bead_fe3+_spge11.bin.csv
Data Source:  Experiment
Instrument Model:  CHI650E
Data Proc:  Smoothing
Header:
Note:

Init E (V) = -0.15
Final E (V) = 0.35
Incr E (V) = 0.004
Amplitude (V) = 0.05
Pulse Width (sec) = 0.05
Sample Width (sec) = 0.0167
Pulse Period (sec) = 0.5
Quiet Time (sec) = 10
Sensitivity (A/V) = 0.001

Ep = 0.074V
ip = -1.005e-5A
Ap = -1.286e-6VA

Potential/V, Current/A

-0.146, -2.904e-6
-0.142, -2.866e-6
-0.138, -2.830e-6
-0.134, -2.794e-6
-0.130, -2.755e-6
-0.126, -2.719e-6
-0.122, -2.694e-6
-0.118, -2.675e-6
-0.114, -2.669e-6
-0.110, -2.675e-6
-0.106, -2.679e-6
-0.102, -2.686e-6
-0.098, -2.699e-6
-0.094, -2.712e-6
-0.090, -2.733e-6
-0.086, -2.755e-6
-0.082, -2.776e-6
-0.078, -2.803e-6
-0.074, -2.839e-6
-0.070, -2.878e-6
-0.066, -2.934e-6
-0.062, -2.999e-6
-0.058, -3.072e-6
-0.054, -3.155e-6
-0.050, -3.255e-6
-0.046, -3.355e-6
-0.042, -3.482e-6
-0.038, -3.622e-6
-0.034, -3.788e-6
-0.030, -3.969e-6
-0.026, -4.169e-6
-0.022, -4.379e-6
-0.018, -4.614e-6
-0.014, -4.855e-6
-0.010, -5.132e-6
-0.006, -5.424e-6
-0.002, -5.738e-6
0.002, -6.074e-6
0.006, -6.434e-6
0.010, -6.806e-6
0.014, -7.207e-6
0.018, -7.622e-6
0.022, -8.054e-6
0.026, -8.488e-6
0.030, -8.926e-6
0.034, -9.359e-6
0.038, -9.795e-6
0.042, -1.022e-5
0.046, -1.064e-5
0.050, -1.102e-5
0.054, -1.136e-5
0.058, -1.164e-5
0.062, -1.188e-5
0.066, -1.206e-5
0.070, -1.218e-5
0.074, -1.224e-5
0.078, -1.223e-5
0.082, -1.215e-5
0.086, -1.201e-5
0.090, -1.181e-5
0.094, -1.154e-5
0.098, -1.120e-5
0.102, -1.082e-5
0.106, -1.039e-5
0.110, -9.920e-6
0.114, -9.428e-6
0.118, -8.913e-6
0.122, -8.388e-6
0.126, -7.874e-6
0.130, -7.371e-6
0.134, -6.893e-6
0.138, -6.447e-6
0.142, -6.016e-6
0.146, -5.607e-6
0.150, -5.212e-6
0.154, -4.835e-6
0.158, -4.490e-6
0.162, -4.178e-6
0.166, -3.898e-6
0.170, -3.652e-6
0.174, -3.423e-6
0.178, -3.225e-6
0.182, -3.048e-6
0.186, -2.882e-6
0.190, -2.741e-6
0.194, -2.605e-6
0.198, -2.487e-6
0.202, -2.381e-6
0.206, -2.284e-6
0.210, -2.200e-6
0.214, -2.125e-6
0.218, -2.057e-6
0.222, -2.001e-6
0.226, -1.946e-6
0.230, -1.901e-6
0.234, -1.860e-6
0.238, -1.821e-6
0.242, -1.788e-6
0.246, -1.756e-6
0.250, -1.726e-6
0.254, -1.701e-6
0.258, -1.677e-6
0.262, -1.665e-6
0.266, -1.653e-6
0.270, -1.649e-6
0.274, -1.642e-6
0.278, -1.636e-6
0.282, -1.623e-6
0.286, -1.616e-6
0.290, -1.609e-6
0.294, -1.611e-6
0.298, -1.613e-6
0.302, -1.617e-6
0.306, -1.618e-6
0.310, -1.617e-6
0.314, -1.620e-6
0.318, -1.621e-6
0.322, -1.623e-6
0.326, -1.626e-6
0.330, -1.626e-6
0.334, -1.628e-6
0.338, -1.626e-6
0.342, -1.625e-6
0.346, -1.622e-6
0.350, -1.618e-6

File: 10pM_bead_Fe3+_SPGE12.bin.csv
June 8, 2022   16:46:24
Differential Pulse Voltammetry
File: e:\10pm_bead_fe3+_spge12.bin.csv
Data Source:  Experiment
Instrument Model:  CHI650E
Data Proc:  Smoothing
Header:
Note:

Init E (V) = -0.15
Final E (V) = 0.35
Incr E (V) = 0.004
Amplitude (V) = 0.05
Pulse Width (sec) = 0.05
Sample Width (sec) = 0.0167
Pulse Period (sec) = 0.5
Quiet Time (sec) = 10
Sensitivity (A/V) = 0.001

Ep = 0.070V
ip = -3.458e-6A
Ap = -5.569e-7VA

Potential/V, Current/A

-0.146, -2.265e-6
-0.142, -2.264e-6
-0.138, -2.265e-6
-0.134, -2.267e-6
-0.130, -2.271e-6
-0.126, -2.274e-6
-0.122, -2.280e-6
-0.118, -2.291e-6
-0.114, -2.300e-6
-0.110, -2.310e-6
-0.106, -2.329e-6
-0.102, -2.341e-6
-0.098, -2.357e-6
-0.094, -2.369e-6
-0.090, -2.378e-6
-0.086, -2.390e-6
-0.082, -2.410e-6
-0.078, -2.437e-6
-0.074, -2.464e-6
-0.070, -2.488e-6
-0.066, -2.518e-6
-0.062, -2.553e-6
-0.058, -2.595e-6
-0.054, -2.651e-6
-0.050, -2.712e-6
-0.046, -2.781e-6
-0.042, -2.853e-6
-0.038, -2.920e-6
-0.034, -2.995e-6
-0.030, -3.074e-6
-0.026, -3.156e-6
-0.022, -3.237e-6
-0.018, -3.329e-6
-0.014, -3.420e-6
-0.010, -3.522e-6
-0.006, -3.626e-6
-0.002, -3.730e-6
0.002, -3.833e-6
0.006, -3.950e-6
0.010, -4.067e-6
0.014, -4.187e-6
0.018, -4.304e-6
0.022, -4.421e-6
0.026, -4.533e-6
0.030, -4.639e-6
0.034, -4.732e-6
0.038, -4.832e-6
0.042, -4.922e-6
0.046, -5.013e-6
0.050, -5.092e-6
0.054, -5.160e-6
0.058, -5.206e-6
0.062, -5.246e-6
0.066, -5.268e-6
0.070, -5.278e-6
0.074, -5.276e-6
0.078, -5.256e-6
0.082, -5.222e-6
0.086, -5.168e-6
0.090, -5.099e-6
0.094, -5.016e-6
0.098, -4.921e-6
0.102, -4.816e-6
0.106, -4.705e-6
0.110, -4.583e-6
0.114, -4.454e-6
0.118, -4.325e-6
0.122, -4.191e-6
0.126, -4.056e-6
0.130, -3.922e-6
0.134, -3.786e-6
0.138, -3.646e-6
0.142, -3.517e-6
0.146, -3.387e-6
0.150, -3.257e-6
0.154, -3.137e-6
0.158, -3.022e-6
0.162, -2.907e-6
0.166, -2.801e-6
0.170, -2.700e-6
0.174, -2.601e-6
0.178, -2.511e-6
0.182, -2.425e-6
0.186, -2.335e-6
0.190, -2.251e-6
0.194, -2.172e-6
0.198, -2.098e-6
0.202, -2.034e-6
0.206, -1.970e-6
0.210, -1.907e-6
0.214, -1.844e-6
0.218, -1.789e-6
0.222, -1.739e-6
0.226, -1.699e-6
0.230, -1.654e-6
0.234, -1.612e-6
0.238, -1.577e-6
0.242, -1.547e-6
0.246, -1.519e-6
0.250, -1.491e-6
0.254, -1.463e-6
0.258, -1.435e-6
0.262, -1.420e-6
0.266, -1.403e-6
0.270, -1.390e-6
0.274, -1.372e-6
0.278, -1.359e-6
0.282, -1.346e-6
0.286, -1.343e-6
0.290, -1.339e-6
0.294, -1.335e-6
0.298, -1.325e-6
0.302, -1.325e-6
0.306, -1.323e-6
0.310, -1.326e-6
0.314, -1.330e-6
0.318, -1.335e-6
0.322, -1.337e-6
0.326, -1.346e-6
0.330, -1.348e-6
0.334, -1.351e-6
0.338, -1.352e-6
0.342, -1.358e-6
0.346, -1.368e-6
0.350, -1.382e-6

File: 10pM_bead_Fe3+_SPGE13.bin.csv
June 8, 2022   16:49:58
Differential Pulse Voltammetry
File: e:\10pm_bead_fe3+_spge13.bin.csv
Data Source:  Experiment
Instrument Model:  CHI650E
Data Proc:  Smoothing
Header:
Note:

Init E (V) = -0.15
Final E (V) = 0.35
Incr E (V) = 0.004
Amplitude (V) = 0.05
Pulse Width (sec) = 0.05
Sample Width (sec) = 0.0167
Pulse Period (sec) = 0.5
Quiet Time (sec) = 10
Sensitivity (A/V) = 0.001

Ep = 0.070V
ip = -5.126e-6A
Ap = -7.735e-7VA

Potential/V, Current/A

-0.146, -3.243e-6
-0.142, -3.200e-6
-0.138, -3.166e-6
-0.134, -3.139e-6
-0.130, -3.122e-6
-0.126, -3.109e-6
-0.122, -3.100e-6
-0.118, -3.090e-6
-0.114, -3.086e-6
-0.110, -3.090e-6
-0.106, -3.101e-6
-0.102, -3.108e-6
-0.098, -3.123e-6
-0.094, -3.134e-6
-0.090, -3.160e-6
-0.086, -3.191e-6
-0.082, -3.221e-6
-0.078, -3.245e-6
-0.074, -3.280e-6
-0.070, -3.319e-6
-0.066, -3.367e-6
-0.062, -3.425e-6
-0.058, -3.482e-6
-0.054, -3.548e-6
-0.050, -3.625e-6
-0.046, -3.713e-6
-0.042, -3.808e-6
-0.038, -3.918e-6
-0.034, -4.028e-6
-0.030, -4.151e-6
-0.026, -4.278e-6
-0.022, -4.416e-6
-0.018, -4.561e-6
-0.014, -4.713e-6
-0.010, -4.866e-6
-0.006, -5.023e-6
-0.002, -5.188e-6
0.002, -5.367e-6
0.006, -5.552e-6
0.010, -5.747e-6
0.014, -5.943e-6
0.018, -6.145e-6
0.022, -6.344e-6
0.026, -6.547e-6
0.030, -6.740e-6
0.034, -6.919e-6
0.038, -7.081e-6
0.042, -7.232e-6
0.046, -7.351e-6
0.050, -7.461e-6
0.054, -7.546e-6
0.058, -7.609e-6
0.062, -7.659e-6
0.066, -7.694e-6
0.070, -7.705e-6
0.074, -7.700e-6
0.078, -7.670e-6
0.082, -7.606e-6
0.086, -7.517e-6
0.090, -7.394e-6
0.094, -7.255e-6
0.098, -7.090e-6
0.102, -6.913e-6
0.106, -6.720e-6
0.110, -6.523e-6
0.114, -6.319e-6
0.118, -6.123e-6
0.122, -5.911e-6
0.126, -5.700e-6
0.130, -5.479e-6
0.134, -5.265e-6
0.138, -5.054e-6
0.142, -4.853e-6
0.146, -4.656e-6
0.150, -4.468e-6
0.154, -4.282e-6
0.158, -4.107e-6
0.162, -3.944e-6
0.166, -3.788e-6
0.170, -3.642e-6
0.174, -3.506e-6
0.178, -3.379e-6
0.182, -3.260e-6
0.186, -3.153e-6
0.190, -3.055e-6
0.194, -2.964e-6
0.198, -2.880e-6
0.202, -2.798e-6
0.206, -2.719e-6
0.210, -2.647e-6
0.214, -2.580e-6
0.218, -2.515e-6
0.222, -2.463e-6
0.226, -2.408e-6
0.230, -2.363e-6
0.234, -2.319e-6
0.238, -2.278e-6
0.242, -2.239e-6
0.246, -2.207e-6
0.250, -2.175e-6
0.254, -2.153e-6
0.258, -2.129e-6
0.262, -2.109e-6
0.266, -2.087e-6
0.270, -2.067e-6
0.274, -2.046e-6
0.278, -2.030e-6
0.282, -2.010e-6
0.286, -1.994e-6
0.290, -1.980e-6
0.294, -1.971e-6
0.298, -1.961e-6
0.302, -1.951e-6
0.306, -1.935e-6
0.310, -1.917e-6
0.314, -1.907e-6
0.318, -1.895e-6
0.322, -1.890e-6
0.326, -1.884e-6
0.330, -1.877e-6
0.334, -1.867e-6
0.338, -1.859e-6
0.342, -1.847e-6
0.346, -1.833e-6
0.350, -1.816e-6

File: 10pM_bead_Fe3+_SPGE14.bin.csv
June 8, 2022   16:54:17
Differential Pulse Voltammetry
File: e:\10pm_bead_fe3+_spge14.bin.csv
Data Source:  Experiment
Instrument Model:  CHI650E
Data Proc:  Smoothing
Header:
Note:

Init E (V) = -0.15
Final E (V) = 0.35
Incr E (V) = 0.004
Amplitude (V) = 0.05
Pulse Width (sec) = 0.05
Sample Width (sec) = 0.0167
Pulse Period (sec) = 0.5
Quiet Time (sec) = 10
Sensitivity (A/V) = 0.001

Ep = 0.074V
ip = -4.492e-6A
Ap = -5.612e-7VA

Potential/V, Current/A

-0.146, -2.545e-6
-0.142, -2.526e-6
-0.138, -2.508e-6
-0.134, -2.489e-6
-0.130, -2.473e-6
-0.126, -2.454e-6
-0.122, -2.432e-6
-0.118, -2.406e-6
-0.114, -2.393e-6
-0.110, -2.381e-6
-0.106, -2.372e-6
-0.102, -2.364e-6
-0.098, -2.362e-6
-0.094, -2.362e-6
-0.090, -2.366e-6
-0.086, -2.366e-6
-0.082, -2.369e-6
-0.078, -2.378e-6
-0.074, -2.390e-6
-0.070, -2.405e-6
-0.066, -2.417e-6
-0.062, -2.425e-6
-0.058, -2.439e-6
-0.054, -2.468e-6
-0.050, -2.513e-6
-0.046, -2.559e-6
-0.042, -2.616e-6
-0.038, -2.673e-6
-0.034, -2.744e-6
-0.030, -2.825e-6
-0.026, -2.918e-6
-0.022, -3.013e-6
-0.018, -3.119e-6
-0.014, -3.235e-6
-0.010, -3.363e-6
-0.006, -3.502e-6
-0.002, -3.641e-6
0.002, -3.786e-6
0.006, -3.936e-6
0.010, -4.093e-6
0.014, -4.259e-6
0.018, -4.443e-6
0.022, -4.627e-6
0.026, -4.816e-6
0.030, -5.013e-6
0.034, -5.212e-6
0.038, -5.408e-6
0.042, -5.597e-6
0.046, -5.769e-6
0.050, -5.921e-6
0.054, -6.060e-6
0.058, -6.170e-6
0.062, -6.261e-6
0.066, -6.332e-6
0.070, -6.374e-6
0.074, -6.390e-6
0.078, -6.378e-6
0.082, -6.324e-6
0.086, -6.246e-6
0.090, -6.141e-6
0.094, -6.005e-6
0.098, -5.848e-6
0.102, -5.663e-6
0.106, -5.457e-6
0.110, -5.238e-6
0.114, -5.010e-6
0.118, -4.776e-6
0.122, -4.537e-6
0.126, -4.299e-6
0.130, -4.066e-6
0.134, -3.839e-6
0.138, -3.620e-6
0.142, -3.414e-6
0.146, -3.217e-6
0.150, -3.032e-6
0.154, -2.863e-6
0.158, -2.708e-6
0.162, -2.569e-6
0.166, -2.440e-6
0.170, -2.319e-6
0.174, -2.201e-6
0.178, -2.094e-6
0.182, -1.995e-6
0.186, -1.914e-6
0.190, -1.835e-6
0.194, -1.771e-6
0.198, -1.712e-6
0.202, -1.659e-6
0.206, -1.610e-6
0.210, -1.569e-6
0.214, -1.528e-6
0.218, -1.491e-6
0.222, -1.460e-6
0.226, -1.431e-6
0.230, -1.407e-6
0.234, -1.389e-6
0.238, -1.373e-6
0.242, -1.353e-6
0.246, -1.337e-6
0.250, -1.325e-6
0.254, -1.313e-6
0.258, -1.307e-6
0.262, -1.306e-6
0.266, -1.304e-6
0.270, -1.301e-6
0.274, -1.300e-6
0.278, -1.298e-6
0.282, -1.296e-6
0.286, -1.294e-6
0.290, -1.295e-6
0.294, -1.297e-6
0.298, -1.298e-6
0.302, -1.303e-6
0.306, -1.310e-6
0.310, -1.316e-6
0.314, -1.318e-6
0.318, -1.323e-6
0.322, -1.318e-6
0.326, -1.319e-6
0.330, -1.322e-6
0.334, -1.325e-6
0.338, -1.327e-6
0.342, -1.328e-6
0.346, -1.330e-6
0.350, -1.333e-6

File: 10pM_bead_Fe3+_SPGE15.1.bin.csv
June 8, 2022   16:58:33
Differential Pulse Voltammetry
File: e:\10pm_bead_fe3+_spge15.1.bin.csv
Data Source:  Experiment
Instrument Model:  CHI650E
Data Proc:  Smoothing
Header:
Note:

Init E (V) = -0.15
Final E (V) = 0.35
Incr E (V) = 0.004
Amplitude (V) = 0.05
Pulse Width (sec) = 0.05
Sample Width (sec) = 0.0167
Pulse Period (sec) = 0.5
Quiet Time (sec) = 10
Sensitivity (A/V) = 0.001

Ep = 0.114V
ip = -1.087e-5A
Ap = -1.506e-6VA

Potential/V, Current/A

-0.146, -1.959e-6
-0.142, -1.905e-6
-0.138, -1.855e-6
-0.134, -1.808e-6
-0.130, -1.768e-6
-0.126, -1.724e-6
-0.122, -1.689e-6
-0.118, -1.668e-6
-0.114, -1.650e-6
-0.110, -1.641e-6
-0.106, -1.635e-6
-0.102, -1.631e-6
-0.098, -1.633e-6
-0.094, -1.645e-6
-0.090, -1.661e-6
-0.086, -1.686e-6
-0.082, -1.711e-6
-0.078, -1.748e-6
-0.074, -1.786e-6
-0.070, -1.825e-6
-0.066, -1.876e-6
-0.062, -1.934e-6
-0.058, -1.995e-6
-0.054, -2.070e-6
-0.050, -2.153e-6
-0.046, -2.238e-6
-0.042, -2.337e-6
-0.038, -2.445e-6
-0.034, -2.567e-6
-0.030, -2.702e-6
-0.026, -2.849e-6
-0.022, -3.003e-6
-0.018, -3.181e-6
-0.014, -3.381e-6
-0.010, -3.609e-6
-0.006, -3.858e-6
-0.002, -4.128e-6
0.002, -4.402e-6
0.006, -4.690e-6
0.010, -4.976e-6
0.014, -5.252e-6
0.018, -5.519e-6
0.022, -5.793e-6
0.026, -6.067e-6
0.030, -6.350e-6
0.034, -6.635e-6
0.038, -6.913e-6
0.042, -7.200e-6
0.046, -7.511e-6
0.050, -7.851e-6
0.054, -8.220e-6
0.058, -8.605e-6
0.062, -9.001e-6
0.066, -9.395e-6
0.070, -9.794e-6
0.074, -1.019e-5
0.078, -1.058e-5
0.082, -1.097e-5
0.086, -1.134e-5
0.090, -1.170e-5
0.094, -1.204e-5
0.098, -1.234e-5
0.102, -1.259e-5
0.106, -1.278e-5
0.110, -1.291e-5
0.114, -1.296e-5
0.118, -1.294e-5
0.122, -1.284e-5
0.126, -1.265e-5
0.130, -1.240e-5
0.134, -1.209e-5
0.138, -1.171e-5
0.142, -1.127e-5
0.146, -1.079e-5
0.150, -1.027e-5
0.154, -9.747e-6
0.158, -9.216e-6
0.162, -8.687e-6
0.166, -8.157e-6
0.170, -7.642e-6
0.174, -7.151e-6
0.178, -6.690e-6
0.182, -6.256e-6
0.186, -5.847e-6
0.190, -5.468e-6
0.194, -5.128e-6
0.198, -4.821e-6
0.202, -4.547e-6
0.206, -4.301e-6
0.210, -4.075e-6
0.214, -3.874e-6
0.218, -3.691e-6
0.222, -3.525e-6
0.226, -3.379e-6
0.230, -3.249e-6
0.234, -3.137e-6
0.238, -3.037e-6
0.242, -2.945e-6
0.246, -2.869e-6
0.250, -2.797e-6
0.254, -2.737e-6
0.258, -2.690e-6
0.262, -2.647e-6
0.266, -2.612e-6
0.270, -2.590e-6
0.274, -2.570e-6
0.278, -2.551e-6
0.282, -2.540e-6
0.286, -2.523e-6
0.290, -2.509e-6
0.294, -2.504e-6
0.298, -2.497e-6
0.302, -2.497e-6
0.306, -2.496e-6
0.310, -2.496e-6
0.314, -2.501e-6
0.318, -2.512e-6
0.322, -2.518e-6
0.326, -2.531e-6
0.330, -2.538e-6
0.334, -2.552e-6
0.338, -2.567e-6
0.342, -2.585e-6
0.346, -2.604e-6
0.350, -2.626e-6

File: 10pM_bead_Fe3+_SPGE15.bin.csv
June 8, 2022   16:56:57
Differential Pulse Voltammetry
File: e:\10pm_bead_fe3+_spge15.bin.csv
Data Source:  Experiment
Instrument Model:  CHI650E
Data Proc:  Smoothing
Header:
Note:

Init E (V) = -0.15
Final E (V) = 0.35
Incr E (V) = 0.004
Amplitude (V) = 0.05
Pulse Width (sec) = 0.05
Sample Width (sec) = 0.0167
Pulse Period (sec) = 0.5
Quiet Time (sec) = 10
Sensitivity (A/V) = 0.001

Ep = 0.010V
ip = -3.522e-6A
Ap = -5.913e-8VA

Potential/V, Current/A

-0.146, -2.251e-6
-0.142, -2.200e-6
-0.138, -2.155e-6
-0.134, -2.115e-6
-0.130, -2.084e-6
-0.126, -2.051e-6
-0.122, -2.020e-6
-0.118, -1.994e-6
-0.114, -1.972e-6
-0.110, -1.956e-6
-0.106, -1.947e-6
-0.102, -1.943e-6
-0.098, -1.947e-6
-0.094, -1.954e-6
-0.090, -1.969e-6
-0.086, -1.987e-6
-0.082, -2.015e-6
-0.078, -2.051e-6
-0.074, -2.096e-6
-0.070, -2.144e-6
-0.066, -2.205e-6
-0.062, -2.273e-6
-0.058, -2.350e-6
-0.054, -2.436e-6
-0.050, -2.542e-6
-0.046, -2.661e-6
-0.042, -2.805e-6
-0.038, -2.977e-6
-0.034, -3.182e-6
-0.030, -3.434e-6
-0.026, -3.754e-6
-0.022, -4.157e-6
-0.018, -4.647e-6
-0.014, -5.222e-6
-0.010, -5.953e-6
-0.006, -6.959e-6
-0.002, -8.305e-6
0.002, -9.863e-6
0.006, -1.124e-5
0.010, -1.194e-5
0.014, -1.177e-5
0.018, -1.088e-5
0.022, -9.738e-6
0.026, -8.756e-6
0.030, -8.166e-6
0.034, -7.975e-6
0.038, -8.093e-6
0.042, -8.419e-6
0.046, -8.864e-6
0.050, -9.351e-6
0.054, -9.858e-6
0.058, -1.039e-5
0.062, -1.094e-5
0.066, -1.148e-5
0.070, -1.202e-5
0.074, -1.254e-5
0.078, -1.303e-5
0.082, -1.349e-5
0.086, -1.390e-5
0.090, -1.424e-5
0.094, -1.451e-5
0.098, -1.472e-5
0.102, -1.484e-5
0.106, -1.488e-5
0.110, -1.482e-5
0.114, -1.466e-5
0.118, -1.441e-5
0.122, -1.406e-5
0.126, -1.363e-5
0.130, -1.314e-5
0.134, -1.260e-5
0.138, -1.202e-5
0.142, -1.140e-5
0.146, -1.076e-5
0.150, -1.012e-5
0.154, -9.474e-6
0.158, -8.849e-6
0.162, -8.248e-6
0.166, -7.678e-6
0.170, -7.139e-6
0.174, -6.641e-6
0.178, -6.174e-6
0.182, -5.746e-6
0.186, -5.358e-6
0.190, -5.014e-6
0.194, -4.702e-6
0.198, -4.420e-6
0.202, -4.157e-6
0.206, -3.924e-6
0.210, -3.710e-6
0.214, -3.523e-6
0.218, -3.358e-6
0.222, -3.215e-6
0.226, -3.086e-6
0.230, -2.982e-6
0.234, -2.895e-6
0.238, -2.819e-6
0.242, -2.751e-6
0.246, -2.696e-6
0.250, -2.644e-6
0.254, -2.598e-6
0.258, -2.557e-6
0.262, -2.529e-6
0.266, -2.501e-6
0.270, -2.482e-6
0.274, -2.471e-6
0.278, -2.457e-6
0.282, -2.441e-6
0.286, -2.438e-6
0.290, -2.431e-6
0.294, -2.429e-6
0.298, -2.431e-6
0.302, -2.439e-6
0.306, -2.445e-6
0.310, -2.463e-6
0.314, -2.474e-6
0.318, -2.487e-6
0.322, -2.495e-6
0.326, -2.510e-6
0.330, -2.521e-6
0.334, -2.544e-6
0.338, -2.561e-6
0.342, -2.582e-6
0.346, -2.605e-6
0.350, -2.630e-6

File: 100fM_bead_Fe3+_SPGE21.bin.csv
June 8, 2022   17:22:31
Differential Pulse Voltammetry
File: e:\100fm_bead_fe3+_spge21.bin.csv
Data Source:  Experiment
Instrument Model:  CHI650E
Data Proc:  Smoothing
Header:
Note:

Init E (V) = -0.15
Final E (V) = 0.35
Incr E (V) = 0.004
Amplitude (V) = 0.05
Pulse Width (sec) = 0.05
Sample Width (sec) = 0.0167
Pulse Period (sec) = 0.5
Quiet Time (sec) = 10
Sensitivity (A/V) = 0.001

Ep = 0.078V
ip = -1.168e-6A
Ap = -1.728e-7VA

Potential/V, Current/A

-0.146, -1.393e-6
-0.142, -1.358e-6
-0.138, -1.326e-6
-0.134, -1.298e-6
-0.130, -1.274e-6
-0.126, -1.251e-6
-0.122, -1.232e-6
-0.118, -1.218e-6
-0.114, -1.205e-6
-0.110, -1.198e-6
-0.106, -1.193e-6
-0.102, -1.188e-6
-0.098, -1.185e-6
-0.094, -1.176e-6
-0.090, -1.168e-6
-0.086, -1.164e-6
-0.082, -1.160e-6
-0.078, -1.164e-6
-0.074, -1.166e-6
-0.070, -1.170e-6
-0.066, -1.175e-6
-0.062, -1.186e-6
-0.058, -1.197e-6
-0.054, -1.219e-6
-0.050, -1.240e-6
-0.046, -1.265e-6
-0.042, -1.290e-6
-0.038, -1.313e-6
-0.034, -1.333e-6
-0.030, -1.361e-6
-0.026, -1.392e-6
-0.022, -1.433e-6
-0.018, -1.473e-6
-0.014, -1.511e-6
-0.010, -1.546e-6
-0.006, -1.586e-6
-0.002, -1.624e-6
0.002, -1.660e-6
0.006, -1.697e-6
0.010, -1.735e-6
0.014, -1.774e-6
0.018, -1.814e-6
0.022, -1.850e-6
0.026, -1.879e-6
0.030, -1.912e-6
0.034, -1.945e-6
0.038, -1.980e-6
0.042, -2.011e-6
0.046, -2.041e-6
0.050, -2.068e-6
0.054, -2.095e-6
0.058, -2.115e-6
0.062, -2.140e-6
0.066, -2.158e-6
0.070, -2.171e-6
0.074, -2.179e-6
0.078, -2.180e-6
0.082, -2.172e-6
0.086, -2.163e-6
0.090, -2.146e-6
0.094, -2.120e-6
0.098, -2.097e-6
0.102, -2.068e-6
0.106, -2.036e-6
0.110, -1.994e-6
0.114, -1.948e-6
0.118, -1.896e-6
0.122, -1.845e-6
0.126, -1.795e-6
0.130, -1.744e-6
0.134, -1.689e-6
0.138, -1.634e-6
0.142, -1.576e-6
0.146, -1.523e-6
0.150, -1.475e-6
0.154, -1.423e-6
0.158, -1.378e-6
0.162, -1.331e-6
0.166, -1.296e-6
0.170, -1.262e-6
0.174, -1.229e-6
0.178, -1.193e-6
0.182, -1.158e-6
0.186, -1.121e-6
0.190, -1.097e-6
0.194, -1.074e-6
0.198, -1.052e-6
0.202, -1.027e-6
0.206, -1.000e-6
0.210, -9.786e-7
0.214, -9.588e-7
0.218, -9.420e-7
0.222, -9.285e-7
0.226, -9.156e-7
0.230, -9.044e-7
0.234, -8.921e-7
0.238, -8.786e-7
0.242, -8.632e-7
0.246, -8.538e-7
0.250, -8.476e-7
0.254, -8.451e-7
0.258, -8.413e-7
0.262, -8.372e-7
0.266, -8.264e-7
0.270, -8.229e-7
0.274, -8.170e-7
0.278, -8.137e-7
0.282, -8.147e-7
0.286, -8.126e-7
0.290, -8.069e-7
0.294, -8.060e-7
0.298, -8.012e-7
0.302, -7.956e-7
0.306, -7.917e-7
0.310, -7.898e-7
0.314, -7.875e-7
0.318, -7.836e-7
0.322, -7.793e-7
0.326, -7.717e-7
0.330, -7.687e-7
0.334, -7.687e-7
0.338, -7.701e-7
0.342, -7.673e-7
0.346, -7.629e-7
0.350, -7.567e-7

File: 100fM_bead_Fe3+_SPGE22.bin.csv
June 8, 2022   17:25:14
Differential Pulse Voltammetry
File: e:\100fm_bead_fe3+_spge22.bin.csv
Data Source:  Experiment
Instrument Model:  CHI650E
Data Proc:  Smoothing
Header:
Note:

Init E (V) = -0.15
Final E (V) = 0.35
Incr E (V) = 0.004
Amplitude (V) = 0.05
Pulse Width (sec) = 0.05
Sample Width (sec) = 0.0167
Pulse Period (sec) = 0.5
Quiet Time (sec) = 10
Sensitivity (A/V) = 0.001

Ep = 0.082V
ip = -1.318e-5A
Ap = -1.575e-6VA

Potential/V, Current/A

-0.146, -3.402e-6
-0.142, -3.367e-6
-0.138, -3.335e-6
-0.134, -3.306e-6
-0.130, -3.279e-6
-0.126, -3.252e-6
-0.122, -3.231e-6
-0.118, -3.210e-6
-0.114, -3.197e-6
-0.110, -3.181e-6
-0.106, -3.173e-6
-0.102, -3.161e-6
-0.098, -3.162e-6
-0.094, -3.166e-6
-0.090, -3.178e-6
-0.086, -3.195e-6
-0.082, -3.212e-6
-0.078, -3.236e-6
-0.074, -3.269e-6
-0.070, -3.302e-6
-0.066, -3.343e-6
-0.062, -3.393e-6
-0.058, -3.448e-6
-0.054, -3.524e-6
-0.050, -3.608e-6
-0.046, -3.706e-6
-0.042, -3.819e-6
-0.038, -3.946e-6
-0.034, -4.083e-6
-0.030, -4.241e-6
-0.026, -4.423e-6
-0.022, -4.637e-6
-0.018, -4.881e-6
-0.014, -5.157e-6
-0.010, -5.450e-6
-0.006, -5.767e-6
-0.002, -6.112e-6
0.002, -6.492e-6
0.006, -6.904e-6
0.010, -7.346e-6
0.014, -7.826e-6
0.018, -8.334e-6
0.022, -8.881e-6
0.026, -9.463e-6
0.030, -1.007e-5
0.034, -1.068e-5
0.038, -1.132e-5
0.042, -1.194e-5
0.046, -1.255e-5
0.050, -1.315e-5
0.054, -1.371e-5
0.058, -1.422e-5
0.062, -1.468e-5
0.066, -1.505e-5
0.070, -1.533e-5
0.074, -1.553e-5
0.078, -1.563e-5
0.082, -1.564e-5
0.086, -1.554e-5
0.090, -1.533e-5
0.094, -1.502e-5
0.098, -1.460e-5
0.102, -1.411e-5
0.106, -1.354e-5
0.110, -1.292e-5
0.114, -1.225e-5
0.118, -1.156e-5
0.122, -1.085e-5
0.126, -1.014e-5
0.130, -9.441e-6
0.134, -8.759e-6
0.138, -8.100e-6
0.142, -7.481e-6
0.146, -6.892e-6
0.150, -6.341e-6
0.154, -5.842e-6
0.158, -5.388e-6
0.162, -4.975e-6
0.166, -4.603e-6
0.170, -4.261e-6
0.174, -3.947e-6
0.178, -3.669e-6
0.182, -3.428e-6
0.186, -3.215e-6
0.190, -3.029e-6
0.194, -2.863e-6
0.198, -2.714e-6
0.202, -2.581e-6
0.206, -2.466e-6
0.210, -2.357e-6
0.214, -2.264e-6
0.218, -2.176e-6
0.222, -2.103e-6
0.226, -2.042e-6
0.230, -1.997e-6
0.234, -1.953e-6
0.238, -1.910e-6
0.242, -1.865e-6
0.246, -1.826e-6
0.250, -1.789e-6
0.254, -1.770e-6
0.258, -1.751e-6
0.262, -1.730e-6
0.266, -1.710e-6
0.270, -1.692e-6
0.274, -1.675e-6
0.278, -1.668e-6
0.282, -1.656e-6
0.286, -1.642e-6
0.290, -1.630e-6
0.294, -1.616e-6
0.298, -1.605e-6
0.302, -1.602e-6
0.306, -1.593e-6
0.310, -1.581e-6
0.314, -1.568e-6
0.318, -1.554e-6
0.322, -1.545e-6
0.326, -1.535e-6
0.330, -1.524e-6
0.334, -1.513e-6
0.338, -1.502e-6
0.342, -1.491e-6
0.346, -1.480e-6
0.350, -1.470e-6