Folder: lucian/Experiments/Lab Data/8.8.22/DPV/csv/Modified Electrode

File: 1nM_bead_Fe3+_SPGE1.csv
June 8, 2022   16:13:58
Differential Pulse Voltammetry
File: e:\1nm_bead_fe3+_spge1.bin.csv
Data Source:  Experiment
Instrument Model:  CHI650E
Data Proc:  Smoothing
Header:
Note:

Init E (V) = -0.15
Final E (V) = 0.35
Incr E (V) = 0.004
Amplitude (V) = 0.05
Pulse Width (sec) = 0.05
Sample Width (sec) = 0.0167
Pulse Period (sec) = 0.5
Quiet Time (sec) = 10
Sensitivity (A/V) = 0.001

Ep = 0.074V
ip = -4.177e-6A
Ap = -5.788e-7VA

Potential/V, Current/A

-0.146, -2.557e-6
-0.142, -2.547e-6
-0.138, -2.537e-6
-0.134, -2.526e-6
-0.130, -2.516e-6
-0.126, -2.505e-6
-0.122, -2.497e-6
-0.118, -2.485e-6
-0.114, -2.480e-6
-0.110, -2.475e-6
-0.106, -2.470e-6
-0.102, -2.467e-6
-0.098, -2.468e-6
-0.094, -2.471e-6
-0.090, -2.480e-6
-0.086, -2.495e-6
-0.082, -2.515e-6
-0.078, -2.534e-6
-0.074, -2.555e-6
-0.070, -2.579e-6
-0.066, -2.600e-6
-0.062, -2.628e-6
-0.058, -2.659e-6
-0.054, -2.693e-6
-0.050, -2.738e-6
-0.046, -2.795e-6
-0.042, -2.862e-6
-0.038, -2.942e-6
-0.034, -3.025e-6
-0.030, -3.115e-6
-0.026, -3.209e-6
-0.022, -3.312e-6
-0.018, -3.425e-6
-0.014, -3.546e-6
-0.010, -3.677e-6
-0.006, -3.817e-6
-0.002, -3.960e-6
0.002, -4.097e-6
0.006, -4.239e-6
0.010, -4.384e-6
0.014, -4.537e-6
0.018, -4.697e-6
0.022, -4.866e-6
0.026, -5.031e-6
0.030, -5.197e-6
0.034, -5.355e-6
0.038, -5.506e-6
0.042, -5.643e-6
0.046, -5.771e-6
0.050, -5.884e-6
0.054, -5.981e-6
0.058, -6.059e-6
0.062, -6.120e-6
0.066, -6.166e-6
0.070, -6.200e-6
0.074, -6.211e-6
0.078, -6.202e-6
0.082, -6.162e-6
0.086, -6.089e-6
0.090, -5.998e-6
0.094, -5.888e-6
0.098, -5.759e-6
0.102, -5.614e-6
0.106, -5.451e-6
0.110, -5.269e-6
0.114, -5.080e-6
0.118, -4.882e-6
0.122, -4.679e-6
0.126, -4.469e-6
0.130, -4.264e-6
0.134, -4.066e-6
0.138, -3.882e-6
0.142, -3.704e-6
0.146, -3.534e-6
0.150, -3.362e-6
0.154, -3.202e-6
0.158, -3.059e-6
0.162, -2.924e-6
0.166, -2.804e-6
0.170, -2.690e-6
0.174, -2.580e-6
0.178, -2.476e-6
0.182, -2.387e-6
0.186, -2.299e-6
0.190, -2.228e-6
0.194, -2.159e-6
0.198, -2.094e-6
0.202, -2.030e-6
0.206, -1.969e-6
0.210, -1.913e-6
0.214, -1.864e-6
0.218, -1.821e-6
0.222, -1.779e-6
0.226, -1.743e-6
0.230, -1.706e-6
0.234, -1.674e-6
0.238, -1.650e-6
0.242, -1.629e-6
0.246, -1.608e-6
0.250, -1.583e-6
0.254, -1.558e-6
0.258, -1.535e-6
0.262, -1.520e-6
0.266, -1.507e-6
0.270, -1.503e-6
0.274, -1.493e-6
0.278, -1.485e-6
0.282, -1.481e-6
0.286, -1.477e-6
0.290, -1.470e-6
0.294, -1.467e-6
0.298, -1.458e-6
0.302, -1.453e-6
0.306, -1.447e-6
0.310, -1.448e-6
0.314, -1.445e-6
0.318, -1.450e-6
0.322, -1.446e-6
0.326, -1.445e-6
0.330, -1.437e-6
0.334, -1.441e-6
0.338, -1.438e-6
0.342, -1.436e-6
0.346, -1.434e-6
0.350, -1.432e-6

File: 1nM_bead_Fe3+_SPGE2.bin.csv
June 8, 2022   16:19:15
Differential Pulse Voltammetry
File: e:\1nm_bead_fe3+_spge2.bin.csv
Data Source:  Experiment
Instrument Model:  CHI650E
Data Proc:  Smoothing
Header:
Note:

Init E (V) = -0.15
Final E (V) = 0.35
Incr E (V) = 0.004
Amplitude (V) = 0.05
Pulse Width (sec) = 0.05
Sample Width (sec) = 0.0167
Pulse Period (sec) = 0.5
Quiet Time (sec) = 10
Sensitivity (A/V) = 0.001

Ep = 0.070V
ip = -2.061e-6A
Ap = -2.880e-7VA

Potential/V, Current/A

-0.146, -2.567e-6
-0.142, -2.570e-6
-0.138, -2.569e-6
-0.134, -2.565e-6
-0.130, -2.559e-6
-0.126, -2.546e-6
-0.122, -2.533e-6
-0.118, -2.524e-6
-0.114, -2.514e-6
-0.110, -2.508e-6
-0.106, -2.505e-6
-0.102, -2.502e-6
-0.098, -2.503e-6
-0.094, -2.508e-6
-0.090, -2.506e-6
-0.086, -2.503e-6
-0.082, -2.497e-6
-0.078, -2.492e-6
-0.074, -2.492e-6
-0.070, -2.495e-6
-0.066, -2.502e-6
-0.062, -2.507e-6
-0.058, -2.518e-6
-0.054, -2.533e-6
-0.050, -2.563e-6
-0.046, -2.601e-6
-0.042, -2.647e-6
-0.038, -2.692e-6
-0.034, -2.742e-6
-0.030, -2.791e-6
-0.026, -2.847e-6
-0.022, -2.900e-6
-0.018, -2.960e-6
-0.014, -3.020e-6
-0.010, -3.084e-6
-0.006, -3.151e-6
-0.002, -3.216e-6
0.002, -3.275e-6
0.006, -3.341e-6
0.010, -3.411e-6
0.014, -3.483e-6
0.018, -3.566e-6
0.022, -3.645e-6
0.026, -3.718e-6
0.030, -3.784e-6
0.034, -3.840e-6
0.038, -3.893e-6
0.042, -3.940e-6
0.046, -3.981e-6
0.050, -4.017e-6
0.054, -4.046e-6
0.058, -4.068e-6
0.062, -4.091e-6
0.066, -4.100e-6
0.070, -4.101e-6
0.074, -4.092e-6
0.078, -4.075e-6
0.082, -4.041e-6
0.086, -3.995e-6
0.090, -3.937e-6
0.094, -3.865e-6
0.098, -3.794e-6
0.102, -3.713e-6
0.106, -3.626e-6
0.110, -3.536e-6
0.114, -3.446e-6
0.118, -3.345e-6
0.122, -3.244e-6
0.126, -3.139e-6
0.130, -3.036e-6
0.134, -2.940e-6
0.138, -2.848e-6
0.142, -2.752e-6
0.146, -2.659e-6
0.150, -2.566e-6
0.154, -2.478e-6
0.158, -2.397e-6
0.162, -2.318e-6
0.166, -2.240e-6
0.170, -2.168e-6
0.174, -2.095e-6
0.178, -2.032e-6
0.182, -1.969e-6
0.186, -1.910e-6
0.190, -1.860e-6
0.194, -1.809e-6
0.198, -1.766e-6
0.202, -1.722e-6
0.206, -1.678e-6
0.210, -1.633e-6
0.214, -1.598e-6
0.218, -1.563e-6
0.222, -1.538e-6
0.226, -1.514e-6
0.230, -1.495e-6
0.234, -1.478e-6
0.238, -1.462e-6
0.242, -1.445e-6
0.246, -1.432e-6
0.250, -1.424e-6
0.254, -1.415e-6
0.258, -1.404e-6
0.262, -1.397e-6
0.266, -1.390e-6
0.270, -1.390e-6
0.274, -1.388e-6
0.278, -1.385e-6
0.282, -1.382e-6
0.286, -1.383e-6
0.290, -1.384e-6
0.294, -1.393e-6
0.298, -1.394e-6
0.302, -1.392e-6
0.306, -1.393e-6
0.310, -1.398e-6
0.314, -1.400e-6
0.318, -1.411e-6
0.322, -1.413e-6
0.326, -1.414e-6
0.330, -1.417e-6
0.334, -1.427e-6
0.338, -1.434e-6
0.342, -1.439e-6
0.346, -1.445e-6
0.350, -1.450e-6

File: 1nM_bead_Fe3+_SPGE3.bin.csv
June 8, 2022   16:21:54
Differential Pulse Voltammetry
File: e:\1nm_bead_fe3+_spge3.bin.csv
Data Source:  Experiment
Instrument Model:  CHI650E
Data Proc:  Smoothing
Header:
Note:

Init E (V) = -0.15
Final E (V) = 0.35
Incr E (V) = 0.004
Amplitude (V) = 0.05
Pulse Width (sec) = 0.05
Sample Width (sec) = 0.0167
Pulse Period (sec) = 0.5
Quiet Time (sec) = 10
Sensitivity (A/V) = 0.001

Ep = 0.074V
ip = -1.086e-5A
Ap = -1.375e-6VA

Potential/V, Current/A

-0.146, -3.056e-6
-0.142, -3.020e-6
-0.138, -2.993e-6
-0.134, -2.973e-6
-0.130, -2.962e-6
-0.126, -2.955e-6
-0.122, -2.953e-6
-0.118, -2.958e-6
-0.114, -2.963e-6
-0.110, -2.969e-6
-0.106, -2.982e-6
-0.102, -2.999e-6
-0.098, -3.023e-6
-0.094, -3.052e-6
-0.090, -3.085e-6
-0.086, -3.119e-6
-0.082, -3.154e-6
-0.078, -3.190e-6
-0.074, -3.237e-6
-0.070, -3.288e-6
-0.066, -3.351e-6
-0.062, -3.418e-6
-0.058, -3.498e-6
-0.054, -3.587e-6
-0.050, -3.693e-6
-0.046, -3.810e-6
-0.042, -3.947e-6
-0.038, -4.092e-6
-0.034, -4.267e-6
-0.030, -4.463e-6
-0.026, -4.686e-6
-0.022, -4.915e-6
-0.018, -5.166e-6
-0.014, -5.424e-6
-0.010, -5.710e-6
-0.006, -6.019e-6
-0.002, -6.364e-6
0.002, -6.722e-6
0.006, -7.111e-6
0.010, -7.508e-6
0.014, -7.929e-6
0.018, -8.365e-6
0.022, -8.823e-6
0.026, -9.284e-6
0.030, -9.756e-6
0.034, -1.022e-5
0.038, -1.069e-5
0.042, -1.115e-5
0.046, -1.160e-5
0.050, -1.201e-5
0.054, -1.237e-5
0.058, -1.267e-5
0.062, -1.291e-5
0.066, -1.309e-5
0.070, -1.319e-5
0.074, -1.322e-5
0.078, -1.317e-5
0.082, -1.305e-5
0.086, -1.287e-5
0.090, -1.262e-5
0.094, -1.230e-5
0.098, -1.190e-5
0.102, -1.145e-5
0.106, -1.095e-5
0.110, -1.042e-5
0.114, -9.865e-6
0.118, -9.294e-6
0.122, -8.712e-6
0.126, -8.141e-6
0.130, -7.586e-6
0.134, -7.063e-6
0.138, -6.565e-6
0.142, -6.095e-6
0.146, -5.648e-6
0.150, -5.232e-6
0.154, -4.850e-6
0.158, -4.508e-6
0.162, -4.192e-6
0.166, -3.910e-6
0.170, -3.654e-6
0.174, -3.421e-6
0.178, -3.211e-6
0.182, -3.024e-6
0.186, -2.855e-6
0.190, -2.712e-6
0.194, -2.585e-6
0.198, -2.466e-6
0.202, -2.358e-6
0.206, -2.260e-6
0.210, -2.174e-6
0.214, -2.102e-6
0.218, -2.040e-6
0.222, -1.986e-6
0.226, -1.938e-6
0.230, -1.897e-6
0.234, -1.863e-6
0.238, -1.829e-6
0.242, -1.800e-6
0.246, -1.777e-6
0.250, -1.759e-6
0.254, -1.745e-6
0.258, -1.736e-6
0.262, -1.730e-6
0.266, -1.724e-6
0.270, -1.718e-6
0.274, -1.709e-6
0.278, -1.704e-6
0.282, -1.704e-6
0.286, -1.706e-6
0.290, -1.706e-6
0.294, -1.712e-6
0.298, -1.712e-6
0.302, -1.720e-6
0.306, -1.727e-6
0.310, -1.732e-6
0.314, -1.735e-6
0.318, -1.745e-6
0.322, -1.753e-6
0.326, -1.756e-6
0.330, -1.760e-6
0.334, -1.762e-6
0.338, -1.762e-6
0.342, -1.764e-6
0.346, -1.766e-6
0.350, -1.769e-6

File: 1nM_bead_Fe3+_SPGE4.bin.csv
June 8, 2022   16:24:00
Differential Pulse Voltammetry
File: e:\1nm_bead_fe3+_spge4.bin.csv
Data Source:  Experiment
Instrument Model:  CHI650E
Data Proc:  Smoothing
Header:
Note:

Init E (V) = -0.15
Final E (V) = 0.35
Incr E (V) = 0.004
Amplitude (V) = 0.05
Pulse Width (sec) = 0.05
Sample Width (sec) = 0.0167
Pulse Period (sec) = 0.5
Quiet Time (sec) = 10
Sensitivity (A/V) = 0.001

Ep = 0.066V
ip = -3.367e-6A
Ap = -4.375e-7VA

Potential/V, Current/A

-0.146, -2.515e-6
-0.142, -2.485e-6
-0.138, -2.460e-6
-0.134, -2.438e-6
-0.130, -2.418e-6
-0.126, -2.403e-6
-0.122, -2.392e-6
-0.118, -2.386e-6
-0.114, -2.383e-6
-0.110, -2.377e-6
-0.106, -2.374e-6
-0.102, -2.370e-6
-0.098, -2.372e-6
-0.094, -2.374e-6
-0.090, -2.379e-6
-0.086, -2.382e-6
-0.082, -2.385e-6
-0.078, -2.394e-6
-0.074, -2.407e-6
-0.070, -2.427e-6
-0.066, -2.445e-6
-0.062, -2.471e-6
-0.058, -2.495e-6
-0.054, -2.528e-6
-0.050, -2.574e-6
-0.046, -2.627e-6
-0.042, -2.686e-6
-0.038, -2.750e-6
-0.034, -2.815e-6
-0.030, -2.890e-6
-0.026, -2.976e-6
-0.022, -3.060e-6
-0.018, -3.155e-6
-0.014, -3.256e-6
-0.010, -3.359e-6
-0.006, -3.463e-6
-0.002, -3.563e-6
0.002, -3.663e-6
0.006, -3.768e-6
0.010, -3.894e-6
0.014, -4.031e-6
0.018, -4.174e-6
0.022, -4.317e-6
0.026, -4.461e-6
0.030, -4.593e-6
0.034, -4.721e-6
0.038, -4.838e-6
0.042, -4.942e-6
0.046, -5.035e-6
0.050, -5.118e-6
0.054, -5.186e-6
0.058, -5.236e-6
0.062, -5.266e-6
0.066, -5.270e-6
0.070, -5.255e-6
0.074, -5.222e-6
0.078, -5.165e-6
0.082, -5.090e-6
0.086, -4.996e-6
0.090, -4.885e-6
0.094, -4.757e-6
0.098, -4.621e-6
0.102, -4.466e-6
0.106, -4.302e-6
0.110, -4.131e-6
0.114, -3.957e-6
0.118, -3.781e-6
0.122, -3.612e-6
0.126, -3.444e-6
0.130, -3.281e-6
0.134, -3.131e-6
0.138, -2.975e-6
0.142, -2.830e-6
0.146, -2.695e-6
0.150, -2.566e-6
0.154, -2.443e-6
0.158, -2.335e-6
0.162, -2.228e-6
0.166, -2.135e-6
0.170, -2.048e-6
0.174, -1.963e-6
0.178, -1.886e-6
0.182, -1.816e-6
0.186, -1.756e-6
0.190, -1.699e-6
0.194, -1.648e-6
0.198, -1.601e-6
0.202, -1.557e-6
0.206, -1.518e-6
0.210, -1.485e-6
0.214, -1.447e-6
0.218, -1.416e-6
0.222, -1.391e-6
0.226, -1.365e-6
0.230, -1.343e-6
0.234, -1.324e-6
0.238, -1.303e-6
0.242, -1.289e-6
0.246, -1.279e-6
0.250, -1.267e-6
0.254, -1.259e-6
0.258, -1.249e-6
0.262, -1.241e-6
0.266, -1.233e-6
0.270, -1.227e-6
0.274, -1.225e-6
0.278, -1.225e-6
0.282, -1.223e-6
0.286, -1.223e-6
0.290, -1.222e-6
0.294, -1.220e-6
0.298, -1.219e-6
0.302, -1.218e-6
0.306, -1.217e-6
0.310, -1.217e-6
0.314, -1.216e-6
0.318, -1.217e-6
0.322, -1.215e-6
0.326, -1.216e-6
0.330, -1.218e-6
0.334, -1.218e-6
0.338, -1.216e-6
0.342, -1.213e-6
0.346, -1.210e-6
0.350, -1.207e-6

File: 1nM_bead_Fe3+_SPGE5.bin.csv
June 8, 2022   16:26:14
Differential Pulse Voltammetry
File: e:\1nm_bead_fe3+_spge5.bin.csv
Data Source:  Experiment
Instrument Model:  CHI650E
Data Proc:  Smoothing
Header:
Note:

Init E (V) = -0.15
Final E (V) = 0.35
Incr E (V) = 0.004
Amplitude (V) = 0.05
Pulse Width (sec) = 0.05
Sample Width (sec) = 0.0167
Pulse Period (sec) = 0.5
Quiet Time (sec) = 10
Sensitivity (A/V) = 0.001

Ep = 0.062V
ip = -3.243e-6A
Ap = -4.642e-7VA

Potential/V, Current/A

-0.146, -2.717e-6
-0.142, -2.706e-6
-0.138, -2.696e-6
-0.134, -2.684e-6
-0.130, -2.672e-6
-0.126, -2.656e-6
-0.122, -2.643e-6
-0.118, -2.638e-6
-0.114, -2.628e-6
-0.110, -2.630e-6
-0.106, -2.630e-6
-0.102, -2.634e-6
-0.098, -2.638e-6
-0.094, -2.645e-6
-0.090, -2.650e-6
-0.086, -2.652e-6
-0.082, -2.654e-6
-0.078, -2.662e-6
-0.074, -2.670e-6
-0.070, -2.684e-6
-0.066, -2.706e-6
-0.062, -2.732e-6
-0.058, -2.770e-6
-0.054, -2.820e-6
-0.050, -2.877e-6
-0.046, -2.940e-6
-0.042, -3.005e-6
-0.038, -3.074e-6
-0.034, -3.147e-6
-0.030, -3.239e-6
-0.026, -3.333e-6
-0.022, -3.435e-6
-0.018, -3.534e-6
-0.014, -3.633e-6
-0.010, -3.724e-6
-0.006, -3.818e-6
-0.002, -3.913e-6
0.002, -4.024e-6
0.006, -4.146e-6
0.010, -4.277e-6
0.014, -4.404e-6
0.018, -4.517e-6
0.022, -4.622e-6
0.026, -4.717e-6
0.030, -4.809e-6
0.034, -4.901e-6
0.038, -4.993e-6
0.042, -5.074e-6
0.046, -5.151e-6
0.050, -5.211e-6
0.054, -5.259e-6
0.058, -5.285e-6
0.062, -5.302e-6
0.066, -5.294e-6
0.070, -5.278e-6
0.074, -5.245e-6
0.078, -5.203e-6
0.082, -5.138e-6
0.086, -5.064e-6
0.090, -4.966e-6
0.094, -4.860e-6
0.098, -4.735e-6
0.102, -4.603e-6
0.106, -4.462e-6
0.110, -4.314e-6
0.114, -4.162e-6
0.118, -4.009e-6
0.122, -3.852e-6
0.126, -3.697e-6
0.130, -3.544e-6
0.134, -3.390e-6
0.138, -3.244e-6
0.142, -3.105e-6
0.146, -2.979e-6
0.150, -2.850e-6
0.154, -2.732e-6
0.158, -2.611e-6
0.162, -2.500e-6
0.166, -2.398e-6
0.170, -2.305e-6
0.174, -2.208e-6
0.178, -2.123e-6
0.182, -2.045e-6
0.186, -1.970e-6
0.190, -1.903e-6
0.194, -1.840e-6
0.198, -1.785e-6
0.202, -1.731e-6
0.206, -1.684e-6
0.210, -1.636e-6
0.214, -1.592e-6
0.218, -1.551e-6
0.222, -1.524e-6
0.226, -1.493e-6
0.230, -1.468e-6
0.234, -1.445e-6
0.238, -1.421e-6
0.242, -1.402e-6
0.246, -1.389e-6
0.250, -1.376e-6
0.254, -1.361e-6
0.258, -1.352e-6
0.262, -1.345e-6
0.266, -1.339e-6
0.270, -1.339e-6
0.274, -1.338e-6
0.278, -1.336e-6
0.282, -1.338e-6
0.286, -1.340e-6
0.290, -1.340e-6
0.294, -1.345e-6
0.298, -1.343e-6
0.302, -1.347e-6
0.306, -1.348e-6
0.310, -1.353e-6
0.314, -1.357e-6
0.318, -1.360e-6
0.322, -1.363e-6
0.326, -1.371e-6
0.330, -1.376e-6
0.334, -1.385e-6
0.338, -1.391e-6
0.342, -1.396e-6
0.346, -1.399e-6
0.350, -1.400e-6

File: 1pM_bead_Fe3+_SPGE16.bin.csv
June 8, 2022   17:06:18
Differential Pulse Voltammetry
File: e:\1pm_bead_fe3+_spge16.bin.csv
Data Source:  Experiment
Instrument Model:  CHI650E
Data Proc:  Smoothing
Header:
Note:

Init E (V) = -0.15
Final E (V) = 0.35
Incr E (V) = 0.004
Amplitude (V) = 0.05
Pulse Width (sec) = 0.05
Sample Width (sec) = 0.0167
Pulse Period (sec) = 0.5
Quiet Time (sec) = 10
Sensitivity (A/V) = 0.001

Ep = 0.066V
ip = -1.989e-6A
Ap = -2.506e-7VA

Potential/V, Current/A

-0.146, -1.995e-6
-0.142, -1.953e-6
-0.138, -1.911e-6
-0.134, -1.868e-6
-0.130, -1.821e-6
-0.126, -1.781e-6
-0.122, -1.743e-6
-0.118, -1.709e-6
-0.114, -1.675e-6
-0.110, -1.647e-6
-0.106, -1.624e-6
-0.102, -1.608e-6
-0.098, -1.590e-6
-0.094, -1.575e-6
-0.090, -1.559e-6
-0.086, -1.549e-6
-0.082, -1.547e-6
-0.078, -1.549e-6
-0.074, -1.553e-6
-0.070, -1.553e-6
-0.066, -1.559e-6
-0.062, -1.571e-6
-0.058, -1.589e-6
-0.054, -1.614e-6
-0.050, -1.640e-6
-0.046, -1.669e-6
-0.042, -1.704e-6
-0.038, -1.746e-6
-0.034, -1.789e-6
-0.030, -1.839e-6
-0.026, -1.887e-6
-0.022, -1.938e-6
-0.018, -1.993e-6
-0.014, -2.061e-6
-0.010, -2.138e-6
-0.006, -2.226e-6
-0.002, -2.304e-6
0.002, -2.370e-6
0.006, -2.424e-6
0.010, -2.479e-6
0.014, -2.546e-6
0.018, -2.615e-6
0.022, -2.682e-6
0.026, -2.750e-6
0.030, -2.820e-6
0.034, -2.885e-6
0.038, -2.955e-6
0.042, -3.016e-6
0.046, -3.069e-6
0.050, -3.119e-6
0.054, -3.164e-6
0.058, -3.194e-6
0.062, -3.212e-6
0.066, -3.221e-6
0.070, -3.215e-6
0.074, -3.193e-6
0.078, -3.152e-6
0.082, -3.100e-6
0.086, -3.035e-6
0.090, -2.968e-6
0.094, -2.894e-6
0.098, -2.807e-6
0.102, -2.707e-6
0.106, -2.609e-6
0.110, -2.499e-6
0.114, -2.395e-6
0.118, -2.292e-6
0.122, -2.187e-6
0.126, -2.075e-6
0.130, -1.972e-6
0.134, -1.866e-6
0.138, -1.769e-6
0.142, -1.679e-6
0.146, -1.599e-6
0.150, -1.512e-6
0.154, -1.441e-6
0.158, -1.374e-6
0.162, -1.314e-6
0.166, -1.257e-6
0.170, -1.213e-6
0.174, -1.160e-6
0.178, -1.115e-6
0.182, -1.071e-6
0.186, -1.034e-6
0.190, -9.955e-7
0.194, -9.683e-7
0.198, -9.355e-7
0.202, -9.069e-7
0.206, -8.811e-7
0.210, -8.617e-7
0.214, -8.409e-7
0.218, -8.311e-7
0.222, -8.211e-7
0.226, -8.115e-7
0.230, -7.994e-7
0.234, -7.944e-7
0.238, -7.855e-7
0.242, -7.759e-7
0.246, -7.642e-7
0.250, -7.541e-7
0.254, -7.410e-7
0.258, -7.435e-7
0.262, -7.419e-7
0.266, -7.370e-7
0.270, -7.333e-7
0.274, -7.335e-7
0.278, -7.324e-7
0.282, -7.368e-7
0.286, -7.336e-7
0.290, -7.311e-7
0.294, -7.292e-7
0.298, -7.321e-7
0.302, -7.387e-7
0.306, -7.437e-7
0.310, -7.478e-7
0.314, -7.480e-7
0.318, -7.507e-7
0.322, -7.545e-7
0.326, -7.551e-7
0.330, -7.582e-7
0.334, -7.632e-7
0.338, -7.566e-7
0.342, -7.606e-7
0.346, -7.681e-7
0.350, -7.791e-7

File: 1pM_bead_Fe3+_SPGE17.bin.csv
June 8, 2022   17:10:24
Differential Pulse Voltammetry
File: e:\1pm_bead_fe3+_spge17.bin.csv
Data Source:  Experiment
Instrument Model:  CHI650E
Data Proc:  Smoothing
Header:
Note:

Init E (V) = -0.15
Final E (V) = 0.35
Incr E (V) = 0.004
Amplitude (V) = 0.05
Pulse Width (sec) = 0.05
Sample Width (sec) = 0.0167
Pulse Period (sec) = 0.5
Quiet Time (sec) = 10
Sensitivity (A/V) = 0.001

Ep = 0.046V
ip = -7.407e-6A
Ap = -7.012e-7VA

Potential/V, Current/A

-0.146, -6.320e-6
-0.142, -6.282e-6
-0.138, -6.250e-6
-0.134, -6.223e-6
-0.130, -6.199e-6
-0.126, -6.178e-6
-0.122, -6.181e-6
-0.118, -6.197e-6
-0.114, -6.226e-6
-0.110, -6.256e-6
-0.106, -6.284e-6
-0.102, -6.315e-6
-0.098, -6.365e-6
-0.094, -6.431e-6
-0.090, -6.519e-6
-0.086, -6.623e-6
-0.082, -6.738e-6
-0.078, -6.859e-6
-0.074, -6.989e-6
-0.070, -7.134e-6
-0.066, -7.303e-6
-0.062, -7.493e-6
-0.058, -7.701e-6
-0.054, -7.915e-6
-0.050, -8.139e-6
-0.046, -8.381e-6
-0.042, -8.646e-6
-0.038, -8.925e-6
-0.034, -9.217e-6
-0.030, -9.530e-6
-0.026, -9.861e-6
-0.022, -1.022e-5
-0.018, -1.060e-5
-0.014, -1.099e-5
-0.010, -1.139e-5
-0.006, -1.182e-5
-0.002, -1.227e-5
0.002, -1.273e-5
0.006, -1.318e-5
0.010, -1.362e-5
0.014, -1.406e-5
0.018, -1.448e-5
0.022, -1.489e-5
0.026, -1.528e-5
0.030, -1.565e-5
0.034, -1.596e-5
0.038, -1.621e-5
0.042, -1.635e-5
0.046, -1.641e-5
0.050, -1.637e-5
0.054, -1.613e-5
0.058, -1.552e-5
0.062, -1.441e-5
0.066, -1.334e-5
0.070, -1.337e-5
0.074, -1.433e-5
0.078, -1.540e-5
0.082, -1.578e-5
0.086, -1.439e-5
0.090, -1.258e-5
0.094, -1.163e-5
0.098, -1.142e-5
0.102, -1.168e-5
0.106, -1.200e-5
0.110, -1.160e-5
0.114, -1.127e-5
0.118, -1.107e-5
0.122, -1.085e-5
0.126, -1.073e-5
0.130, -1.066e-5
0.134, -1.058e-5
0.138, -1.056e-5
0.142, -1.058e-5
0.146, -1.063e-5
0.150, -1.072e-5
0.154, -1.085e-5
0.158, -1.098e-5
0.162, -1.110e-5
0.166, -1.123e-5
0.170, -1.136e-5
0.174, -1.146e-5
0.178, -1.160e-5
0.182, -1.173e-5
0.186, -1.186e-5
0.190, -1.199e-5
0.194, -1.213e-5
0.198, -1.224e-5
0.202, -1.239e-5
0.206, -1.254e-5
0.210, -1.271e-5
0.214, -1.291e-5
0.218, -1.312e-5
0.222, -1.333e-5
0.226, -1.357e-5
0.230, -1.382e-5
0.234, -1.402e-5
0.238, -1.425e-5
0.242, -1.445e-5
0.246, -1.462e-5
0.250, -1.480e-5
0.254, -1.495e-5
0.258, -1.508e-5
0.262, -1.528e-5
0.266, -1.546e-5
0.270, -1.566e-5
0.274, -1.583e-5
0.278, -1.596e-5
0.282, -1.602e-5
0.286, -1.601e-5
0.290, -1.597e-5
0.294, -1.588e-5
0.298, -1.576e-5
0.302, -1.570e-5
0.306, -1.569e-5
0.310, -1.569e-5
0.314, -1.571e-5
0.318, -1.577e-5
0.322, -1.589e-5
0.326, -1.600e-5
0.330, -1.618e-5
0.334, -1.639e-5
0.338, -1.631e-5
0.342, -1.595e-5
0.346, -1.536e-5
0.350, -1.453e-5

File: 1pM_bead_Fe3+_SPGE18.bin.csv
June 8, 2022   17:12:44
Differential Pulse Voltammetry
File: e:\1pm_bead_fe3+_spge18.bin.csv
Data Source:  Experiment
Instrument Model:  CHI650E
Data Proc:  Smoothing
Header:
Note:

Init E (V) = -0.15
Final E (V) = 0.35
Incr E (V) = 0.004
Amplitude (V) = 0.05
Pulse Width (sec) = 0.05
Sample Width (sec) = 0.0167
Pulse Period (sec) = 0.5
Quiet Time (sec) = 10
Sensitivity (A/V) = 0.001

Ep = 0.074V
ip = -2.775e-6A
Ap = -2.601e-7VA

Potential/V, Current/A

-0.146, -2.963e-6
-0.142, -3.104e-6
-0.138, -3.193e-6
-0.134, -3.232e-6
-0.130, -3.162e-6
-0.126, -3.121e-6
-0.122, -3.083e-6
-0.118, -3.041e-6
-0.114, -3.002e-6
-0.110, -2.969e-6
-0.106, -2.956e-6
-0.102, -2.951e-6
-0.098, -2.958e-6
-0.094, -2.952e-6
-0.090, -2.958e-6
-0.086, -2.974e-6
-0.082, -2.988e-6
-0.078, -3.007e-6
-0.074, -3.021e-6
-0.070, -3.031e-6
-0.066, -3.049e-6
-0.062, -3.071e-6
-0.058, -3.096e-6
-0.054, -3.130e-6
-0.050, -3.158e-6
-0.046, -3.200e-6
-0.042, -3.248e-6
-0.038, -3.302e-6
-0.034, -3.372e-6
-0.030, -3.456e-6
-0.026, -3.547e-6
-0.022, -3.650e-6
-0.018, -3.758e-6
-0.014, -3.864e-6
-0.010, -3.974e-6
-0.006, -4.096e-6
-0.002, -4.218e-6
0.002, -4.343e-6
0.006, -4.479e-6
0.010, -4.630e-6
0.014, -4.799e-6
0.018, -4.974e-6
0.022, -5.143e-6
0.026, -5.300e-6
0.030, -5.442e-6
0.034, -5.574e-6
0.038, -5.697e-6
0.042, -5.830e-6
0.046, -5.967e-6
0.050, -6.108e-6
0.054, -6.236e-6
0.058, -6.322e-6
0.062, -6.358e-6
0.066, -6.368e-6
0.070, -6.375e-6
0.074, -6.393e-6
0.078, -6.388e-6
0.082, -6.301e-6
0.086, -6.111e-6
0.090, -5.856e-6
0.094, -5.606e-6
0.098, -5.391e-6
0.102, -5.190e-6
0.106, -4.980e-6
0.110, -4.760e-6
0.114, -4.553e-6
0.118, -4.380e-6
0.122, -4.237e-6
0.126, -4.119e-6
0.130, -4.021e-6
0.134, -3.951e-6
0.138, -3.915e-6
0.142, -3.908e-6
0.146, -3.915e-6
0.150, -3.920e-6
0.154, -3.909e-6
0.158, -3.885e-6
0.162, -3.854e-6
0.166, -3.822e-6
0.170, -3.785e-6
0.174, -3.748e-6
0.178, -3.717e-6
0.182, -3.691e-6
0.186, -3.675e-6
0.190, -3.660e-6
0.194, -3.642e-6
0.198, -3.620e-6
0.202, -3.597e-6
0.206, -3.567e-6
0.210, -3.540e-6
0.214, -3.508e-6
0.218, -3.477e-6
0.222, -3.440e-6
0.226, -3.408e-6
0.230, -3.373e-6
0.234, -3.342e-6
0.238, -3.311e-6
0.242, -3.284e-6
0.246, -3.252e-6
0.250, -3.224e-6
0.254, -3.199e-6
0.258, -3.174e-6
0.262, -3.156e-6
0.266, -3.138e-6
0.270, -3.113e-6
0.274, -3.086e-6
0.278, -3.064e-6
0.282, -3.042e-6
0.286, -3.026e-6
0.290, -3.007e-6
0.294, -2.987e-6
0.298, -2.971e-6
0.302, -2.957e-6
0.306, -2.943e-6
0.310, -2.929e-6
0.314, -2.915e-6
0.318, -2.903e-6
0.322, -2.896e-6
0.326, -2.887e-6
0.330, -2.872e-6
0.334, -2.856e-6
0.338, -2.845e-6
0.342, -2.832e-6
0.346, -2.819e-6
0.350, -2.807e-6

File: 1pM_bead_Fe3+_SPGE19.bin.csv
June 8, 2022   17:15:54
Differential Pulse Voltammetry
File: e:\1pm_bead_fe3+_spge19.bin.csv
Data Source:  Experiment
Instrument Model:  CHI650E
Data Proc:  Smoothing
Header:
Note:

Init E (V) = -0.15
Final E (V) = 0.35
Incr E (V) = 0.004
Amplitude (V) = 0.05
Pulse Width (sec) = 0.05
Sample Width (sec) = 0.0167
Pulse Period (sec) = 0.5
Quiet Time (sec) = 10
Sensitivity (A/V) = 0.001

Ep = 0.070V
ip = -1.279e-5A
Ap = -1.596e-6VA

Potential/V, Current/A

-0.146, -3.467e-6
-0.142, -3.430e-6
-0.138, -3.397e-6
-0.134, -3.368e-6
-0.130, -3.345e-6
-0.126, -3.324e-6
-0.122, -3.302e-6
-0.118, -3.288e-6
-0.114, -3.280e-6
-0.110, -3.276e-6
-0.106, -3.276e-6
-0.102, -3.282e-6
-0.098, -3.299e-6
-0.094, -3.328e-6
-0.090, -3.369e-6
-0.086, -3.409e-6
-0.082, -3.450e-6
-0.078, -3.498e-6
-0.074, -3.557e-6
-0.070, -3.627e-6
-0.066, -3.714e-6
-0.062, -3.814e-6
-0.058, -3.931e-6
-0.054, -4.066e-6
-0.050, -4.220e-6
-0.046, -4.400e-6
-0.042, -4.606e-6
-0.038, -4.841e-6
-0.034, -5.102e-6
-0.030, -5.387e-6
-0.026, -5.666e-6
-0.022, -5.947e-6
-0.018, -6.250e-6
-0.014, -6.584e-6
-0.010, -6.962e-6
-0.006, -7.382e-6
-0.002, -7.816e-6
0.002, -8.267e-6
0.006, -8.749e-6
0.010, -9.255e-6
0.014, -9.780e-6
0.018, -1.032e-5
0.022, -1.087e-5
0.026, -1.142e-5
0.030, -1.198e-5
0.034, -1.254e-5
0.038, -1.307e-5
0.042, -1.357e-5
0.046, -1.403e-5
0.050, -1.443e-5
0.054, -1.477e-5
0.058, -1.503e-5
0.062, -1.522e-5
0.066, -1.533e-5
0.070, -1.535e-5
0.074, -1.527e-5
0.078, -1.510e-5
0.082, -1.484e-5
0.086, -1.449e-5
0.090, -1.407e-5
0.094, -1.357e-5
0.098, -1.301e-5
0.102, -1.241e-5
0.106, -1.177e-5
0.110, -1.111e-5
0.114, -1.043e-5
0.118, -9.761e-6
0.122, -9.095e-6
0.126, -8.444e-6
0.130, -7.822e-6
0.134, -7.229e-6
0.138, -6.669e-6
0.142, -6.156e-6
0.146, -5.686e-6
0.150, -5.251e-6
0.154, -4.857e-6
0.158, -4.491e-6
0.162, -4.164e-6
0.166, -3.872e-6
0.170, -3.608e-6
0.174, -3.369e-6
0.178, -3.161e-6
0.182, -2.973e-6
0.186, -2.819e-6
0.190, -2.680e-6
0.194, -2.554e-6
0.198, -2.439e-6
0.202, -2.337e-6
0.206, -2.241e-6
0.210, -2.165e-6
0.214, -2.092e-6
0.218, -2.030e-6
0.222, -1.977e-6
0.226, -1.932e-6
0.230, -1.889e-6
0.234, -1.862e-6
0.238, -1.833e-6
0.242, -1.805e-6
0.246, -1.783e-6
0.250, -1.758e-6
0.254, -1.736e-6
0.258, -1.720e-6
0.262, -1.701e-6
0.266, -1.683e-6
0.270, -1.675e-6
0.274, -1.662e-6
0.278, -1.654e-6
0.282, -1.640e-6
0.286, -1.625e-6
0.290, -1.612e-6
0.294, -1.601e-6
0.298, -1.591e-6
0.302, -1.582e-6
0.306, -1.570e-6
0.310, -1.562e-6
0.314, -1.554e-6
0.318, -1.548e-6
0.322, -1.542e-6
0.326, -1.535e-6
0.330, -1.521e-6
0.334, -1.513e-6
0.338, -1.503e-6
0.342, -1.490e-6
0.346, -1.476e-6
0.350, -1.462e-6