Folder: lucian/Experiments/Lab Data/8.8.22/DPV/csv/Modified Electrode (part 3)

File: 100fM_bead_Fe3+_SPGE23.bin.csv
June 8, 2022   17:27:32
Differential Pulse Voltammetry
File: e:\100fm_bead_fe3+_spge23.bin.csv
Data Source:  Experiment
Instrument Model:  CHI650E
Data Proc:  Smoothing
Header:
Note:

Init E (V) = -0.15
Final E (V) = 0.35
Incr E (V) = 0.004
Amplitude (V) = 0.05
Pulse Width (sec) = 0.05
Sample Width (sec) = 0.0167
Pulse Period (sec) = 0.5
Quiet Time (sec) = 10
Sensitivity (A/V) = 0.001

Ep = 0.074V
ip = -1.624e-5A
Ap = -2.171e-6VA

Potential/V, Current/A

-0.146, -3.192e-6
-0.142, -3.170e-6
-0.138, -3.153e-6
-0.134, -3.142e-6
-0.130, -3.137e-6
-0.126, -3.133e-6
-0.122, -3.144e-6
-0.118, -3.161e-6
-0.114, -3.180e-6
-0.110, -3.204e-6
-0.106, -3.230e-6
-0.102, -3.258e-6
-0.098, -3.294e-6
-0.094, -3.345e-6
-0.090, -3.401e-6
-0.086, -3.464e-6
-0.082, -3.532e-6
-0.078, -3.609e-6
-0.074, -3.701e-6
-0.070, -3.815e-6
-0.066, -3.947e-6
-0.062, -4.096e-6
-0.058, -4.248e-6
-0.054, -4.411e-6
-0.050, -4.584e-6
-0.046, -4.777e-6
-0.042, -4.985e-6
-0.038, -5.220e-6
-0.034, -5.475e-6
-0.030, -5.771e-6
-0.026, -6.105e-6
-0.022, -6.483e-6
-0.018, -6.893e-6
-0.014, -7.342e-6
-0.010, -7.820e-6
-0.006, -8.328e-6
-0.002, -8.863e-6
0.002, -9.432e-6
0.006, -1.003e-5
0.010, -1.066e-5
0.014, -1.133e-5
0.018, -1.201e-5
0.022, -1.270e-5
0.026, -1.340e-5
0.030, -1.409e-5
0.034, -1.479e-5
0.038, -1.548e-5
0.042, -1.614e-5
0.046, -1.676e-5
0.050, -1.733e-5
0.054, -1.784e-5
0.058, -1.827e-5
0.062, -1.862e-5
0.066, -1.886e-5
0.070, -1.901e-5
0.074, -1.908e-5
0.078, -1.906e-5
0.082, -1.894e-5
0.086, -1.870e-5
0.090, -1.835e-5
0.094, -1.790e-5
0.098, -1.740e-5
0.102, -1.682e-5
0.106, -1.619e-5
0.110, -1.549e-5
0.114, -1.475e-5
0.118, -1.398e-5
0.122, -1.321e-5
0.126, -1.245e-5
0.130, -1.169e-5
0.134, -1.095e-5
0.138, -1.024e-5
0.142, -9.557e-6
0.146, -8.914e-6
0.150, -8.305e-6
0.154, -7.736e-6
0.158, -7.201e-6
0.162, -6.707e-6
0.166, -6.249e-6
0.170, -5.831e-6
0.174, -5.450e-6
0.178, -5.112e-6
0.182, -4.814e-6
0.186, -4.540e-6
0.190, -4.291e-6
0.194, -4.065e-6
0.198, -3.863e-6
0.202, -3.686e-6
0.206, -3.530e-6
0.210, -3.384e-6
0.214, -3.256e-6
0.218, -3.142e-6
0.222, -3.046e-6
0.226, -2.969e-6
0.230, -2.900e-6
0.234, -2.840e-6
0.238, -2.787e-6
0.242, -2.741e-6
0.246, -2.696e-6
0.250, -2.660e-6
0.254, -2.626e-6
0.258, -2.598e-6
0.262, -2.582e-6
0.266, -2.571e-6
0.270, -2.556e-6
0.274, -2.547e-6
0.278, -2.534e-6
0.282, -2.532e-6
0.286, -2.529e-6
0.290, -2.530e-6
0.294, -2.524e-6
0.298, -2.516e-6
0.302, -2.502e-6
0.306, -2.494e-6
0.310, -2.480e-6
0.314, -2.473e-6
0.318, -2.461e-6
0.322, -2.449e-6
0.326, -2.432e-6
0.330, -2.421e-6
0.334, -2.404e-6
0.338, -2.385e-6
0.342, -2.365e-6
0.346, -2.344e-6
0.350, -2.320e-6

File: 100fM_bead_Fe3+_SPGE24.bin.csv
June 8, 2022   17:30:14
Differential Pulse Voltammetry
File: e:\100fm_bead_fe3+_spge24.bin.csv
Data Source:  Experiment
Instrument Model:  CHI650E
Data Proc:  Smoothing
Header:
Note:

Init E (V) = -0.15
Final E (V) = 0.35
Incr E (V) = 0.004
Amplitude (V) = 0.05
Pulse Width (sec) = 0.05
Sample Width (sec) = 0.0167
Pulse Period (sec) = 0.5
Quiet Time (sec) = 10
Sensitivity (A/V) = 0.001

Ep = 0.046V
ip = -3.263e-7A
Ap = -3.356e-8VA

Potential/V, Current/A

-0.146, -1.739e-6
-0.142, -1.705e-6
-0.138, -1.676e-6
-0.134, -1.653e-6
-0.130, -1.638e-6
-0.126, -1.624e-6
-0.122, -1.605e-6
-0.118, -1.585e-6
-0.114, -1.571e-6
-0.110, -1.550e-6
-0.106, -1.536e-6
-0.102, -1.522e-6
-0.098, -1.509e-6
-0.094, -1.490e-6
-0.090, -1.485e-6
-0.086, -1.475e-6
-0.082, -1.465e-6
-0.078, -1.456e-6
-0.074, -1.456e-6
-0.070, -1.444e-6
-0.066, -1.445e-6
-0.062, -1.444e-6
-0.058, -1.437e-6
-0.054, -1.440e-6
-0.050, -1.448e-6
-0.046, -1.449e-6
-0.042, -1.456e-6
-0.038, -1.457e-6
-0.034, -1.461e-6
-0.030, -1.469e-6
-0.026, -1.481e-6
-0.022, -1.486e-6
-0.018, -1.501e-6
-0.014, -1.505e-6
-0.010, -1.521e-6
-0.006, -1.527e-6
-0.002, -1.537e-6
0.002, -1.539e-6
0.006, -1.552e-6
0.010, -1.554e-6
0.014, -1.564e-6
0.018, -1.570e-6
0.022, -1.584e-6
0.026, -1.591e-6
0.030, -1.601e-6
0.034, -1.603e-6
0.038, -1.606e-6
0.042, -1.603e-6
0.046, -1.608e-6
0.050, -1.600e-6
0.054, -1.593e-6
0.058, -1.581e-6
0.062, -1.569e-6
0.066, -1.557e-6
0.070, -1.544e-6
0.074, -1.522e-6
0.078, -1.500e-6
0.082, -1.476e-6
0.086, -1.449e-6
0.090, -1.423e-6
0.094, -1.395e-6
0.098, -1.365e-6
0.102, -1.334e-6
0.106, -1.305e-6
0.110, -1.277e-6
0.114, -1.247e-6
0.118, -1.221e-6
0.122, -1.192e-6
0.126, -1.167e-6
0.130, -1.146e-6
0.134, -1.128e-6
0.138, -1.109e-6
0.142, -1.092e-6
0.146, -1.075e-6
0.150, -1.058e-6
0.154, -1.040e-6
0.158, -1.030e-6
0.162, -1.024e-6
0.166, -1.021e-6
0.170, -1.023e-6
0.174, -1.018e-6
0.178, -1.011e-6
0.182, -1.007e-6
0.186, -1.004e-6
0.190, -1.002e-6
0.194, -9.979e-7
0.198, -9.943e-7
0.202, -9.873e-7
0.206, -9.825e-7
0.210, -9.788e-7
0.214, -9.764e-7
0.218, -9.756e-7
0.222, -9.736e-7
0.226, -9.747e-7
0.230, -9.738e-7
0.234, -9.709e-7
0.238, -9.693e-7
0.242, -9.694e-7
0.246, -9.613e-7
0.250, -9.598e-7
0.254, -9.543e-7
0.258, -9.564e-7
0.262, -9.586e-7
0.266, -9.575e-7
0.270, -9.569e-7
0.274, -9.552e-7
0.278, -9.565e-7
0.282, -9.611e-7
0.286, -9.633e-7
0.290, -9.634e-7
0.294, -9.604e-7
0.298, -9.600e-7
0.302, -9.635e-7
0.306, -9.654e-7
0.310, -9.685e-7
0.314, -9.711e-7
0.318, -9.749e-7
0.322, -9.835e-7
0.326, -9.943e-7
0.330, -9.995e-7
0.334, -1.002e-6
0.338, -1.005e-6
0.342, -1.010e-6
0.346, -1.015e-6
0.350, -1.022e-6

File: 100fM_bead_Fe3+_SPGE25.bin.csv
June 8, 2022   17:32:36
Differential Pulse Voltammetry
File: e:\100fm_bead_fe3+_spge25.bin.csv
Data Source:  Experiment
Instrument Model:  CHI650E
Data Proc:  Smoothing
Header:
Note:

Init E (V) = -0.15
Final E (V) = 0.35
Incr E (V) = 0.004
Amplitude (V) = 0.05
Pulse Width (sec) = 0.05
Sample Width (sec) = 0.0167
Pulse Period (sec) = 0.5
Quiet Time (sec) = 10
Sensitivity (A/V) = 0.001

Ep = 0.070V
ip = -8.614e-7A
Ap = -1.125e-7VA

Potential/V, Current/A

-0.146, -1.395e-6
-0.142, -1.365e-6
-0.138, -1.337e-6
-0.134, -1.312e-6
-0.130, -1.287e-6
-0.126, -1.269e-6
-0.122, -1.257e-6
-0.118, -1.241e-6
-0.114, -1.225e-6
-0.110, -1.213e-6
-0.106, -1.199e-6
-0.102, -1.186e-6
-0.098, -1.177e-6
-0.094, -1.170e-6
-0.090, -1.165e-6
-0.086, -1.161e-6
-0.082, -1.155e-6
-0.078, -1.150e-6
-0.074, -1.149e-6
-0.070, -1.153e-6
-0.066, -1.158e-6
-0.062, -1.158e-6
-0.058, -1.163e-6
-0.054, -1.174e-6
-0.050, -1.188e-6
-0.046, -1.203e-6
-0.042, -1.213e-6
-0.038, -1.218e-6
-0.034, -1.226e-6
-0.030, -1.236e-6
-0.026, -1.253e-6
-0.022, -1.272e-6
-0.018, -1.293e-6
-0.014, -1.316e-6
-0.010, -1.343e-6
-0.006, -1.376e-6
-0.002, -1.403e-6
0.002, -1.430e-6
0.006, -1.456e-6
0.010, -1.484e-6
0.014, -1.518e-6
0.018, -1.553e-6
0.022, -1.587e-6
0.026, -1.616e-6
0.030, -1.649e-6
0.034, -1.686e-6
0.038, -1.721e-6
0.042, -1.751e-6
0.046, -1.779e-6
0.050, -1.803e-6
0.054, -1.821e-6
0.058, -1.837e-6
0.062, -1.844e-6
0.066, -1.848e-6
0.070, -1.849e-6
0.074, -1.847e-6
0.078, -1.836e-6
0.082, -1.823e-6
0.086, -1.798e-6
0.090, -1.772e-6
0.094, -1.743e-6
0.098, -1.706e-6
0.102, -1.671e-6
0.106, -1.631e-6
0.110, -1.590e-6
0.114, -1.548e-6
0.118, -1.503e-6
0.122, -1.460e-6
0.126, -1.417e-6
0.130, -1.371e-6
0.134, -1.331e-6
0.138, -1.285e-6
0.142, -1.239e-6
0.146, -1.200e-6
0.150, -1.166e-6
0.154, -1.132e-6
0.158, -1.107e-6
0.162, -1.081e-6
0.166, -1.056e-6
0.170, -1.031e-6
0.174, -1.007e-6
0.178, -9.771e-7
0.182, -9.562e-7
0.186, -9.377e-7
0.190, -9.216e-7
0.194, -9.051e-7
0.198, -8.930e-7
0.202, -8.781e-7
0.206, -8.658e-7
0.210, -8.532e-7
0.214, -8.401e-7
0.218, -8.306e-7
0.222, -8.252e-7
0.226, -8.175e-7
0.230, -8.086e-7
0.234, -7.965e-7
0.238, -7.848e-7
0.242, -7.789e-7
0.246, -7.739e-7
0.250, -7.723e-7
0.254, -7.690e-7
0.258, -7.642e-7
0.262, -7.636e-7
0.266, -7.650e-7
0.270, -7.617e-7
0.274, -7.595e-7
0.278, -7.494e-7
0.282, -7.409e-7
0.286, -7.395e-7
0.290, -7.371e-7
0.294, -7.362e-7
0.298, -7.369e-7
0.302, -7.278e-7
0.306, -7.159e-7
0.310, -7.066e-7
0.314, -6.968e-7
0.318, -6.958e-7
0.322, -6.990e-7
0.326, -6.906e-7
0.330, -6.801e-7
0.334, -6.716e-7
0.338, -6.626e-7
0.342, -6.548e-7
0.346, -6.483e-7
0.350, -6.429e-7

File: 100pM_bead_Fe3+_SPGE6.bin.csv
June 8, 2022   16:28:25
Differential Pulse Voltammetry
File: e:\100pm_bead_fe3+_spge6.bin.csv
Data Source:  Experiment
Instrument Model:  CHI650E
Data Proc:  Smoothing
Header:
Note:

Init E (V) = -0.15
Final E (V) = 0.35
Incr E (V) = 0.004
Amplitude (V) = 0.05
Pulse Width (sec) = 0.05
Sample Width (sec) = 0.0167
Pulse Period (sec) = 0.5
Quiet Time (sec) = 10
Sensitivity (A/V) = 0.001

Ep = 0.082V
ip = -2.126e-5A
Ap = -2.810e-6VA

Potential/V, Current/A

-0.146, -2.630e-6
-0.142, -2.622e-6
-0.138, -2.619e-6
-0.134, -2.621e-6
-0.130, -2.629e-6
-0.126, -2.643e-6
-0.122, -2.657e-6
-0.118, -2.674e-6
-0.114, -2.702e-6
-0.110, -2.731e-6
-0.106, -2.770e-6
-0.102, -2.817e-6
-0.098, -2.872e-6
-0.094, -2.934e-6
-0.090, -3.008e-6
-0.086, -3.082e-6
-0.082, -3.171e-6
-0.078, -3.267e-6
-0.074, -3.376e-6
-0.070, -3.499e-6
-0.066, -3.627e-6
-0.062, -3.768e-6
-0.058, -3.924e-6
-0.054, -4.096e-6
-0.050, -4.290e-6
-0.046, -4.505e-6
-0.042, -4.727e-6
-0.038, -5.019e-6
-0.034, -5.411e-6
-0.030, -5.932e-6
-0.026, -6.573e-6
-0.022, -7.156e-6
-0.018, -7.507e-6
-0.014, -7.729e-6
-0.010, -7.931e-6
-0.006, -8.255e-6
-0.002, -8.793e-6
0.002, -9.452e-6
0.006, -1.012e-5
0.010, -1.084e-5
0.014, -1.160e-5
0.018, -1.241e-5
0.022, -1.325e-5
0.026, -1.412e-5
0.030, -1.501e-5
0.034, -1.593e-5
0.038, -1.684e-5
0.042, -1.775e-5
0.046, -1.865e-5
0.050, -1.951e-5
0.054, -2.036e-5
0.058, -2.115e-5
0.062, -2.188e-5
0.066, -2.251e-5
0.070, -2.302e-5
0.074, -2.340e-5
0.078, -2.364e-5
0.082, -2.373e-5
0.086, -2.368e-5
0.090, -2.347e-5
0.094, -2.312e-5
0.098, -2.263e-5
0.102, -2.201e-5
0.106, -2.127e-5
0.110, -2.043e-5
0.114, -1.950e-5
0.118, -1.850e-5
0.122, -1.747e-5
0.126, -1.641e-5
0.130, -1.534e-5
0.134, -1.430e-5
0.138, -1.329e-5
0.142, -1.232e-5
0.146, -1.139e-5
0.150, -1.051e-5
0.154, -9.699e-6
0.158, -8.957e-6
0.162, -8.275e-6
0.166, -7.654e-6
0.170, -7.077e-6
0.174, -6.552e-6
0.178, -6.078e-6
0.182, -5.660e-6
0.186, -5.287e-6
0.190, -4.964e-6
0.194, -4.671e-6
0.198, -4.411e-6
0.202, -4.177e-6
0.206, -3.968e-6
0.210, -3.775e-6
0.214, -3.610e-6
0.218, -3.467e-6
0.222, -3.346e-6
0.226, -3.241e-6
0.230, -3.149e-6
0.234, -3.065e-6
0.238, -2.990e-6
0.242, -2.920e-6
0.246, -2.857e-6
0.250, -2.795e-6
0.254, -2.743e-6
0.258, -2.698e-6
0.262, -2.662e-6
0.266, -2.626e-6
0.270, -2.589e-6
0.274, -2.547e-6
0.278, -2.506e-6
0.282, -2.469e-6
0.286, -2.438e-6
0.290, -2.406e-6
0.294, -2.374e-6
0.298, -2.339e-6
0.302, -2.302e-6
0.306, -2.272e-6
0.310, -2.242e-6
0.314, -2.208e-6
0.318, -2.173e-6
0.322, -2.132e-6
0.326, -2.094e-6
0.330, -2.062e-6
0.334, -2.032e-6
0.338, -1.999e-6
0.342, -1.963e-6
0.346, -1.924e-6
0.350, -1.882e-6

File: 100pM_bead_Fe3+_SPGE7.bin.csv
June 8, 2022   16:31:01
Differential Pulse Voltammetry
File: e:\100pm_bead_fe3+_spge7.bin.csv
Data Source:  Experiment
Instrument Model:  CHI650E
Data Proc:  Smoothing
Header:
Note:

Init E (V) = -0.15
Final E (V) = 0.35
Incr E (V) = 0.004
Amplitude (V) = 0.05
Pulse Width (sec) = 0.05
Sample Width (sec) = 0.0167
Pulse Period (sec) = 0.5
Quiet Time (sec) = 10
Sensitivity (A/V) = 0.001

Potential/V, Current/A

-0.146, -2.927e-6
-0.142, -2.861e-6
-0.138, -2.801e-6
-0.134, -2.746e-6
-0.130, -2.696e-6
-0.126, -2.653e-6
-0.122, -2.608e-6
-0.118, -2.564e-6
-0.114, -2.526e-6
-0.110, -2.491e-6
-0.106, -2.460e-6
-0.102, -2.436e-6
-0.098, -2.418e-6
-0.094, -2.409e-6
-0.090, -2.405e-6
-0.086, -2.400e-6
-0.082, -2.397e-6
-0.078, -2.397e-6
-0.074, -2.406e-6
-0.070, -2.423e-6
-0.066, -2.438e-6
-0.062, -2.453e-6
-0.058, -2.483e-6
-0.054, -2.525e-6
-0.050, -2.580e-6
-0.046, -2.642e-6
-0.042, -2.712e-6
-0.038, -2.797e-6
-0.034, -2.907e-6
-0.030, -3.042e-6
-0.026, -3.211e-6
-0.022, -3.419e-6
-0.018, -3.674e-6
-0.014, -3.973e-6
-0.010, -4.391e-6
-0.006, -5.033e-6
-0.002, -5.887e-6
0.002, -6.765e-6
0.006, -7.343e-6
0.010, -7.391e-6
0.014, -6.996e-6
0.018, -6.491e-6
0.022, -6.170e-6
0.026, -6.171e-6
0.030, -6.419e-6
0.034, -6.788e-6
0.038, -7.215e-6
0.042, -7.679e-6
0.046, -8.159e-6
0.050, -8.649e-6
0.054, -9.150e-6
0.058, -9.661e-6
0.062, -1.020e-5
0.066, -1.076e-5
0.070, -1.129e-5
0.074, -1.180e-5
0.078, -1.227e-5
0.082, -1.269e-5
0.086, -1.307e-5
0.090, -1.339e-5
0.094, -1.365e-5
0.098, -1.382e-5
0.102, -1.392e-5
0.106, -1.390e-5
0.110, -1.380e-5
0.114, -1.363e-5
0.118, -1.338e-5
0.122, -1.307e-5
0.126, -1.270e-5
0.130, -1.226e-5
0.134, -1.178e-5
0.138, -1.127e-5
0.142, -1.073e-5
0.146, -1.017e-5
0.150, -9.614e-6
0.154, -9.056e-6
0.158, -8.514e-6
0.162, -7.995e-6
0.166, -7.499e-6
0.170, -7.026e-6
0.174, -6.580e-6
0.178, -6.162e-6
0.182, -5.786e-6
0.186, -5.437e-6
0.190, -5.113e-6
0.194, -4.813e-6
0.198, -4.538e-6
0.202, -4.278e-6
0.206, -4.047e-6
0.210, -3.830e-6
0.214, -3.636e-6
0.218, -3.461e-6
0.222, -3.306e-6
0.226, -3.168e-6
0.230, -3.050e-6
0.234, -2.937e-6
0.238, -2.848e-6
0.242, -2.759e-6
0.246, -2.680e-6
0.250, -2.609e-6
0.254, -2.548e-6
0.258, -2.495e-6
0.262, -2.455e-6
0.266, -2.411e-6
0.270, -2.377e-6
0.274, -2.346e-6
0.278, -2.320e-6
0.282, -2.299e-6
0.286, -2.281e-6
0.290, -2.263e-6
0.294, -2.254e-6
0.298, -2.248e-6
0.302, -2.244e-6
0.306, -2.240e-6
0.310, -2.240e-6
0.314, -2.246e-6
0.318, -2.264e-6
0.322, -2.284e-6
0.326, -2.304e-6
0.330, -2.326e-6
0.334, -2.344e-6
0.338, -2.363e-6
0.342, -2.384e-6
0.346, -2.407e-6
0.350, -2.431e-6

File: 100pM_bead_Fe3+_SPGE8.bin.csv
June 8, 2022   16:33:17
Differential Pulse Voltammetry
File: e:\100pm_bead_fe3+_spge8.bin.csv
Data Source:  Experiment
Instrument Model:  CHI650E
Data Proc:  Smoothing
Header:
Note:

Init E (V) = -0.15
Final E (V) = 0.35
Incr E (V) = 0.004
Amplitude (V) = 0.05
Pulse Width (sec) = 0.05
Sample Width (sec) = 0.0167
Pulse Period (sec) = 0.5
Quiet Time (sec) = 10
Sensitivity (A/V) = 0.001

Ep = 0.078V
ip = -7.179e-6A
Ap = -1.029e-6VA

Potential/V, Current/A

-0.146, -2.838e-6
-0.142, -2.806e-6
-0.138, -2.777e-6
-0.134, -2.751e-6
-0.130, -2.727e-6
-0.126, -2.708e-6
-0.122, -2.698e-6
-0.118, -2.696e-6
-0.114, -2.695e-6
-0.110, -2.691e-6
-0.106, -2.689e-6
-0.102, -2.689e-6
-0.098, -2.692e-6
-0.094, -2.702e-6
-0.090, -2.720e-6
-0.086, -2.747e-6
-0.082, -2.780e-6
-0.078, -2.821e-6
-0.074, -2.867e-6
-0.070, -2.916e-6
-0.066, -2.969e-6
-0.062, -3.035e-6
-0.058, -3.098e-6
-0.054, -3.180e-6
-0.050, -3.273e-6
-0.046, -3.369e-6
-0.042, -3.476e-6
-0.038, -3.593e-6
-0.034, -3.711e-6
-0.030, -3.853e-6
-0.026, -4.002e-6
-0.022, -4.180e-6
-0.018, -4.403e-6
-0.014, -4.648e-6
-0.010, -4.877e-6
-0.006, -5.080e-6
-0.002, -5.254e-6
0.002, -5.439e-6
0.006, -5.660e-6
0.010, -5.919e-6
0.014, -6.183e-6
0.018, -6.454e-6
0.022, -6.742e-6
0.026, -7.032e-6
0.030, -7.320e-6
0.034, -7.602e-6
0.038, -7.870e-6
0.042, -8.136e-6
0.046, -8.398e-6
0.050, -8.643e-6
0.054, -8.870e-6
0.058, -9.060e-6
0.062, -9.215e-6
0.066, -9.337e-6
0.070, -9.419e-6
0.074, -9.461e-6
0.078, -9.464e-6
0.082, -9.424e-6
0.086, -9.346e-6
0.090, -9.222e-6
0.094, -9.069e-6
0.098, -8.883e-6
0.102, -8.662e-6
0.106, -8.410e-6
0.110, -8.135e-6
0.114, -7.829e-6
0.118, -7.518e-6
0.122, -7.198e-6
0.126, -6.876e-6
0.130, -6.550e-6
0.134, -6.234e-6
0.138, -5.925e-6
0.142, -5.631e-6
0.146, -5.343e-6
0.150, -5.067e-6
0.154, -4.806e-6
0.158, -4.562e-6
0.162, -4.338e-6
0.166, -4.130e-6
0.170, -3.934e-6
0.174, -3.752e-6
0.178, -3.588e-6
0.182, -3.435e-6
0.186, -3.298e-6
0.190, -3.174e-6
0.194, -3.061e-6
0.198, -2.956e-6
0.202, -2.861e-6
0.206, -2.775e-6
0.210, -2.695e-6
0.214, -2.626e-6
0.218, -2.557e-6
0.222, -2.493e-6
0.226, -2.438e-6
0.230, -2.383e-6
0.234, -2.329e-6
0.238, -2.286e-6
0.242, -2.241e-6
0.246, -2.203e-6
0.250, -2.170e-6
0.254, -2.134e-6
0.258, -2.102e-6
0.262, -2.075e-6
0.266, -2.046e-6
0.270, -2.021e-6
0.274, -1.993e-6
0.278, -1.968e-6
0.282, -1.943e-6
0.286, -1.924e-6
0.290, -1.898e-6
0.294, -1.879e-6
0.298, -1.855e-6
0.302, -1.837e-6
0.306, -1.817e-6
0.310, -1.798e-6
0.314, -1.775e-6
0.318, -1.757e-6
0.322, -1.737e-6
0.326, -1.721e-6
0.330, -1.702e-6
0.334, -1.686e-6
0.338, -1.669e-6
0.342, -1.654e-6
0.346, -1.640e-6
0.350, -1.628e-6

File: 100pM_bead_Fe3+_SPGE9.bin.csv
June 8, 2022   16:35:09
Differential Pulse Voltammetry
File: e:\100pm_bead_fe3+_spge9.bin.csv
Data Source:  Experiment
Instrument Model:  CHI650E
Data Proc:  Smoothing
Header:
Note:

Init E (V) = -0.15
Final E (V) = 0.35
Incr E (V) = 0.004
Amplitude (V) = 0.05
Pulse Width (sec) = 0.05
Sample Width (sec) = 0.0167
Pulse Period (sec) = 0.5
Quiet Time (sec) = 10
Sensitivity (A/V) = 0.001

Ep = 0.074V
ip = -2.342e-5A
Ap = -3.103e-6VA

Potential/V, Current/A

-0.146, -2.658e-6
-0.142, -2.645e-6
-0.138, -2.637e-6
-0.134, -2.634e-6
-0.130, -2.633e-6
-0.126, -2.638e-6
-0.122, -2.654e-6
-0.118, -2.678e-6
-0.114, -2.710e-6
-0.110, -2.750e-6
-0.106, -2.796e-6
-0.102, -2.844e-6
-0.098, -2.896e-6
-0.094, -2.960e-6
-0.090, -3.035e-6
-0.086, -3.127e-6
-0.082, -3.232e-6
-0.078, -3.354e-6
-0.074, -3.498e-6
-0.070, -3.662e-6
-0.066, -3.859e-6
-0.062, -4.066e-6
-0.058, -4.291e-6
-0.054, -4.537e-6
-0.050, -4.808e-6
-0.046, -5.095e-6
-0.042, -5.425e-6
-0.038, -5.788e-6
-0.034, -6.201e-6
-0.030, -6.665e-6
-0.026, -7.167e-6
-0.022, -7.697e-6
-0.018, -8.269e-6
-0.014, -8.890e-6
-0.010, -9.564e-6
-0.006, -1.029e-5
-0.002, -1.105e-5
0.002, -1.185e-5
0.006, -1.270e-5
0.010, -1.360e-5
0.014, -1.454e-5
0.018, -1.553e-5
0.022, -1.656e-5
0.026, -1.762e-5
0.030, -1.869e-5
0.034, -1.975e-5
0.038, -2.076e-5
0.042, -2.173e-5
0.046, -2.266e-5
0.050, -2.351e-5
0.054, -2.428e-5
0.058, -2.495e-5
0.062, -2.547e-5
0.066, -2.582e-5
0.070, -2.602e-5
0.074, -2.607e-5
0.078, -2.599e-5
0.082, -2.580e-5
0.086, -2.549e-5
0.090, -2.501e-5
0.094, -2.439e-5
0.098, -2.364e-5
0.102, -2.279e-5
0.106, -2.185e-5
0.110, -2.083e-5
0.114, -1.977e-5
0.118, -1.867e-5
0.122, -1.755e-5
0.126, -1.642e-5
0.130, -1.531e-5
0.134, -1.422e-5
0.138, -1.318e-5
0.142, -1.219e-5
0.146, -1.126e-5
0.150, -1.039e-5
0.154, -9.575e-6
0.158, -8.831e-6
0.162, -8.145e-6
0.166, -7.527e-6
0.170, -6.969e-6
0.174, -6.467e-6
0.178, -6.010e-6
0.182, -5.603e-6
0.186, -5.241e-6
0.190, -4.914e-6
0.194, -4.630e-6
0.198, -4.380e-6
0.202, -4.156e-6
0.206, -3.950e-6
0.210, -3.772e-6
0.214, -3.609e-6
0.218, -3.468e-6
0.222, -3.344e-6
0.226, -3.245e-6
0.230, -3.148e-6
0.234, -3.071e-6
0.238, -2.999e-6
0.242, -2.939e-6
0.246, -2.890e-6
0.250, -2.860e-6
0.254, -2.827e-6
0.258, -2.800e-6
0.262, -2.775e-6
0.266, -2.759e-6
0.270, -2.745e-6
0.274, -2.738e-6
0.278, -2.723e-6
0.282, -2.715e-6
0.286, -2.706e-6
0.290, -2.694e-6
0.294, -2.680e-6
0.298, -2.667e-6
0.302, -2.660e-6
0.306, -2.652e-6
0.310, -2.641e-6
0.314, -2.628e-6
0.318, -2.609e-6
0.322, -2.596e-6
0.326, -2.584e-6
0.330, -2.560e-6
0.334, -2.536e-6
0.338, -2.512e-6
0.342, -2.486e-6
0.346, -2.458e-6
0.350, -2.428e-6

File: 100pM_bead_Fe3+_SPGE10.csv
June 8, 2022   16:37:48
Differential Pulse Voltammetry
File: e:\100pm_bead_fe3+_spge10.csv
Data Source:  Experiment
Instrument Model:  CHI650E
Data Proc:  Smoothing
Header:
Note:

Init E (V) = -0.15
Final E (V) = 0.35
Incr E (V) = 0.004
Amplitude (V) = 0.05
Pulse Width (sec) = 0.05
Sample Width (sec) = 0.0167
Pulse Period (sec) = 0.5
Quiet Time (sec) = 10
Sensitivity (A/V) = 0.001

Ep = 0.078V
ip = -2.410e-5A
Ap = -3.260e-6VA

Potential/V, Current/A

-0.146, -2.912e-6
-0.142, -2.885e-6
-0.138, -2.859e-6
-0.134, -2.835e-6
-0.130, -2.808e-6
-0.126, -2.793e-6
-0.122, -2.779e-6
-0.118, -2.778e-6
-0.114, -2.785e-6
-0.110, -2.793e-6
-0.106, -2.804e-6
-0.102, -2.820e-6
-0.098, -2.844e-6
-0.094, -2.866e-6
-0.090, -2.897e-6
-0.086, -2.935e-6
-0.082, -2.989e-6
-0.078, -3.057e-6
-0.074, -3.142e-6
-0.070, -3.233e-6
-0.066, -3.349e-6
-0.062, -3.487e-6
-0.058, -3.650e-6
-0.054, -3.837e-6
-0.050, -4.043e-6
-0.046, -4.265e-6
-0.042, -4.517e-6
-0.038, -4.792e-6
-0.034, -5.107e-6
-0.030, -5.468e-6
-0.026, -5.882e-6
-0.022, -6.343e-6
-0.018, -6.856e-6
-0.014, -7.421e-6
-0.010, -8.045e-6
-0.006, -8.731e-6
-0.002, -9.487e-6
0.002, -1.030e-5
0.006, -1.119e-5
0.010, -1.213e-5
0.014, -1.314e-5
0.018, -1.420e-5
0.022, -1.530e-5
0.026, -1.641e-5
0.030, -1.753e-5
0.034, -1.865e-5
0.038, -1.975e-5
0.042, -2.082e-5
0.046, -2.183e-5
0.050, -2.277e-5
0.054, -2.365e-5
0.058, -2.445e-5
0.062, -2.515e-5
0.066, -2.573e-5
0.070, -2.618e-5
0.074, -2.645e-5
0.078, -2.658e-5
0.082, -2.656e-5
0.086, -2.639e-5
0.090, -2.608e-5
0.094, -2.564e-5
0.098, -2.502e-5
0.102, -2.427e-5
0.106, -2.341e-5
0.110, -2.247e-5
0.114, -2.147e-5
0.118, -2.043e-5
0.122, -1.936e-5
0.126, -1.829e-5
0.130, -1.722e-5
0.134, -1.617e-5
0.138, -1.514e-5
0.142, -1.416e-5
0.146, -1.323e-5
0.150, -1.235e-5
0.154, -1.152e-5
0.158, -1.076e-5
0.162, -1.006e-5
0.166, -9.409e-6
0.170, -8.811e-6
0.174, -8.255e-6
0.178, -7.736e-6
0.182, -7.258e-6
0.186, -6.820e-6
0.190, -6.406e-6
0.194, -6.027e-6
0.198, -5.681e-6
0.202, -5.355e-6
0.206, -5.052e-6
0.210, -4.774e-6
0.214, -4.517e-6
0.218, -4.287e-6
0.222, -4.084e-6
0.226, -3.887e-6
0.230, -3.711e-6
0.234, -3.541e-6
0.238, -3.387e-6
0.242, -3.247e-6
0.246, -3.120e-6
0.250, -3.005e-6
0.254, -2.906e-6
0.258, -2.814e-6
0.262, -2.730e-6
0.266, -2.651e-6
0.270, -2.584e-6
0.274, -2.525e-6
0.278, -2.471e-6
0.282, -2.417e-6
0.286, -2.361e-6
0.290, -2.313e-6
0.294, -2.274e-6
0.298, -2.234e-6
0.302, -2.203e-6
0.306, -2.177e-6
0.310, -2.158e-6
0.314, -2.141e-6
0.318, -2.129e-6
0.322, -2.111e-6
0.326, -2.094e-6
0.330, -2.079e-6
0.334, -2.063e-6
0.338, -2.044e-6
0.342, -2.029e-6
0.346, -2.016e-6
0.350, -2.007e-6